# timestamp ang_vel_x ang_vel_y ang_vel_z lin_acc_x lin_acc_y lin_acc_z
0 4878.790299000000 -0.004261057824 -0.001065264456 -0.009587380104 -0.033518649638 -0.158016502857 9.797022819519
1 4878.792303000000 -0.007456851192 -0.005326322280 -0.005326322280 -0.052672166377 -0.134074598551 9.777869224548
2 4878.794301000000 -0.006391586736 -0.007456851192 -0.002130528912 -0.081402435899 -0.138862982392 9.715620040894
3 4878.796302000000 -0.005326322280 -0.007456851192 -0.005326322280 -0.076614059508 -0.143651366234 9.715620040894
4 4878.798302000000 -0.003195793368 -0.006391586736 -0.005326322280 -0.100555956364 -0.177170008421 9.658160209656
5 4878.800299000000 -0.003195793368 -0.002130528912 -0.005326322280 -0.057460546494 -0.186746776104 9.662948608398
6 4878.802300000000 -0.001065264456 -0.000000000000 -0.003195793368 -0.076614059508 -0.138862982392 9.677313804626
7 4878.804300000000 -0.002130528912 0.003195793368 -0.005326322280 -0.009576757438 -0.148439735174 9.725196838379
8 4878.806301000000 -0.006391586736 -0.002130528912 -0.007456851192 -0.076614059508 -0.148439735174 9.758715629578
9 4878.808299000000 -0.002130528912 -0.001065264456 -0.007456851192 -0.057460546494 -0.138862982392 9.768292427063
10 4878.810298000000 -0.004261057824 -0.002130528912 -0.004261057824 -0.004788378719 -0.148439735174 9.763504028320
11 4878.812298000000 -0.003195793368 -0.004261057824 -0.006391586736 -0.038307029754 -0.124497845769 9.777869224548
12 4878.814298000000 -0.006391586736 -0.003195793368 -0.006391586736 -0.028730273247 -0.124497845769 9.787446022034
13 4878.816302000000 -0.007456851192 -0.004261057824 -0.002130528912 -0.019153514877 -0.158016502857 9.682102203369
14 4878.818298000000 -0.006391586736 -0.002130528912 -0.006391586736 -0.062248922884 -0.158016502857 9.662948608398
15 4878.820298000000 -0.007456851192 -0.003195793368 -0.003195793368 -0.043095409870 -0.158016502857 9.677313804626
16 4878.822300000000 -0.004261057824 -0.003195793368 -0.004261057824 -0.043095409870 -0.196323528886 9.715620040894
17 4878.824301000000 -0.003195793368 0.002130528912 -0.005326322280 -0.062248922884 -0.172381639481 9.749138832092
18 4878.826301000000 -0.001065264456 0.002130528912 -0.005326322280 -0.047883786261 -0.134074598551 9.749138832092
19 4878.828305000000 0.001065264456 -0.000000000000 -0.006391586736 0.014365136623 -0.148439735174 9.753927230835
20 4878.830302000000 -0.001065264456 -0.002130528912 -0.003195793368 -0.043095409870 -0.148439735174 9.782657623291
21 4878.832300000000 -0.007456851192 -0.004261057824 -0.003195793368 -0.043095409870 -0.138862982392 9.835330009460
22 4878.834300000000 -0.007456851192 -0.001065264456 -0.003195793368 -0.071825683117 -0.138862982392 9.773080825806
23 4878.836302000000 -0.005326322280 -0.005326322280 -0.006391586736 -0.067037299275 -0.138862982392 9.696466445923
24 4878.838300000000 -0.006391586736 -0.005326322280 -0.006391586736 -0.067037299275 -0.124497845769 9.653371810913
25 4878.840300000000 -0.006391586736 -0.005326322280 -0.005326322280 -0.086190819740 -0.162804871798 9.672525405884
26 4878.842295000000 -0.005326322280 -0.003195793368 -0.002130528912 -0.076614059508 -0.129286229610 9.639006614685
27 4878.844304000000 -0.006391586736 0.003195793368 -0.002130528912 -0.052672166377 -0.167593255639 9.725196838379
28 4878.846301000000 -0.003195793368 -0.003195793368 -0.006391586736 -0.014365136623 -0.167593255639 9.720408439636
29 4878.848300000000 -0.001065264456 -0.000000000000 -0.004261057824 -0.028730273247 -0.134074598551 9.715620040894
30 4878.850300000000 -0.001065264456 -0.001065264456 -0.004261057824 -0.014365136623 -0.162804871798 9.739562034607
31 4878.852299000000 -0.004261057824 -0.002130528912 -0.003195793368 -0.019153514877 -0.177170008421 9.830541610718
32 4878.854302000000 -0.006391586736 -0.006391586736 -0.004261057824 -0.033518649638 -0.186746776104 9.753927230835
33 4878.856303000000 -0.009587380104 -0.004261057824 -0.005326322280 -0.067037299275 -0.162804871798 9.701254844666
34 4878.858304000000 -0.008522115648 -0.006391586736 -0.004261057824 -0.081402435899 -0.143651366234 9.701254844666
35 4878.860303000000 -0.006391586736 -0.004261057824 -0.005326322280 -0.052672166377 -0.143651366234 9.648583412170
36 4878.862309000000 -0.008522115648 -0.000000000000 -0.006391586736 -0.057460546494 -0.119709469378 9.643795013428
37 4878.864307000000 -0.007456851192 -0.001065264456 -0.002130528912 -0.067037299275 -0.143651366234 9.691679000854
38 4878.866307000000 -0.004261057824 0.001065264456 -0.004261057824 -0.047883786261 -0.215477049351 9.677313804626
39 4878.868303000000 -0.004261057824 0.002130528912 -0.004261057824 -0.043095409870 -0.153228119016 9.749138832092
40 4878.870305000000 -0.003195793368 0.001065264456 -0.003195793368 -0.028730273247 -0.177170008421 9.753927230835
41 4878.872302000000 -0.001065264456 -0.000000000000 -0.005326322280 -0.038307029754 -0.158016502857 9.715620040894
42 4878.874301000000 -0.002130528912 -0.004261057824 -0.004261057824 -0.028730273247 -0.162804871798 9.787446022034
43 4878.876300000000 -0.007456851192 -0.002130528912 -0.002130528912 -0.062248922884 -0.143651366234 9.773080825806
44 4878.878297000000 -0.006391586736 -0.005326322280 -0.005326322280 -0.043095409870 -0.138862982392 9.758715629578
45 4878.880297000000 -0.007456851192 -0.007456851192 -0.004261057824 -0.067037299275 -0.167593255639 9.706043243408
46 4878.882297000000 -0.008522115648 -0.004261057824 -0.003195793368 -0.086190819740 -0.124497845769 9.682102203369
47 4878.884298000000 -0.004261057824 -0.004261057824 -0.004261057824 -0.067037299275 -0.138862982392 9.653371810913
48 4878.886297000000 -0.004261057824 -0.002130528912 -0.005326322280 -0.076614059508 -0.172381639481 9.691679000854
49 4878.888300000000 -0.002130528912 -0.002130528912 -0.007456851192 -0.043095409870 -0.158016502857 9.720408439636
50 4878.890299000000 -0.002130528912 0.001065264456 -0.006391586736 -0.028730273247 -0.134074598551 9.734773635864
51 4878.892303000000 -0.004261057824 0.001065264456 -0.005326322280 -0.033518649638 -0.162804871798 9.820964813232
52 4878.894299000000 -0.006391586736 -0.003195793368 -0.006391586736 -0.038307029754 -0.138862982392 9.825753211975
53 4878.896299000000 -0.005326322280 -0.003195793368 -0.005326322280 -0.095767572522 -0.172381639481 9.816176414490
54 4878.898306000000 -0.007456851192 -0.005326322280 -0.005326322280 -0.081402435899 -0.134074598551 9.701254844666
55 4878.900302000000 -0.003195793368 -0.008522115648 -0.003195793368 -0.052672166377 -0.148439735174 9.662948608398
56 4878.902300000000 -0.005326322280 -0.003195793368 -0.003195793368 -0.076614059508 -0.177170008421 9.662948608398
57 4878.904299000000 -0.005326322280 -0.003195793368 -0.003195793368 -0.076614059508 -0.177170008421 9.662948608398
58 4878.906298000000 -0.005326322280 -0.003195793368 -0.003195793368 -0.076614059508 -0.177170008421 9.662948608398
59 4878.908299000000 -0.005326322280 -0.003195793368 -0.003195793368 -0.076614059508 -0.177170008421 9.662948608398
60 4878.910300000000 -0.005326322280 0.002130528912 -0.003195793368 -0.038307029754 -0.162804871798 9.801811218262
61 4878.912298000000 -0.007456851192 0.002130528912 -0.006391586736 0.000000000000 -0.153228119016 9.773080825806
62 4878.914298000000 -0.005326322280 -0.001065264456 -0.006391586736 -0.052672166377 -0.162804871798 9.849695205688
63 4878.916297000000 -0.004261057824 -0.003195793368 -0.004261057824 -0.019153514877 -0.129286229610 9.820964813232
64 4878.918301000000 -0.008522115648 -0.003195793368 -0.003195793368 -0.019153514877 -0.134074598551 9.787446022034
65 4878.920299000000 -0.006391586736 -0.006391586736 -0.005326322280 -0.067037299275 -0.172381639481 9.715620040894
66 4878.922300000000 -0.006391586736 -0.006391586736 -0.001065264456 -0.076614059508 -0.177170008421 9.701254844666
67 4878.924300000000 -0.005326322280 -0.004261057824 -0.003195793368 -0.086190819740 -0.167593255639 9.648583412170
68 4878.926300000000 -0.006391586736 -0.003195793368 -0.006391586736 -0.086190819740 -0.153228119016 9.682102203369
69 4878.928299000000 -0.002130528912 -0.001065264456 -0.007456851192 -0.038307029754 -0.167593255639 9.710831642151
70 4878.930299000000 -0.001065264456 0.002130528912 -0.003195793368 -0.014365136623 -0.210688665509 9.734773635864
71 4878.932301000000 -0.003195793368 -0.000000000000 -0.003195793368 -0.004788378719 -0.162804871798 9.758715629578
72 4878.934301000000 -0.003195793368 -0.000000000000 -0.004261057824 -0.019153514877 -0.172381639481 9.787446022034
73 4878.936304000000 -0.007456851192 -0.004261057824 -0.005326322280 -0.028730273247 -0.167593255639 9.801811218262
74 4878.938300000000 -0.005326322280 -0.004261057824 -0.005326322280 -0.038307029754 -0.162804871798 9.782657623291
75 4878.940301000000 -0.009587380104 -0.004261057824 -0.006391586736 -0.043095409870 -0.162804871798 9.682102203369
76 4878.942300000000 -0.007456851192 -0.004261057824 -0.005326322280 -0.057460546494 -0.167593255639 9.682102203369
77 4878.944301000000 -0.005326322280 -0.004261057824 -0.005326322280 -0.062248922884 -0.129286229610 9.634218215942
78 4878.946298000000 -0.007456851192 -0.006391586736 -0.003195793368 -0.071825683117 -0.138862982392 9.682102203369
79 4878.948296000000 -0.003195793368 -0.001065264456 -0.004261057824 -0.067037299275 -0.158016502857 9.691679000854
80 4878.950298000000 0.000000000000 -0.001065264456 -0.006391586736 -0.057460546494 -0.181958392262 9.706043243408
81 4878.952297000000 -0.001065264456 -0.000000000000 -0.004261057824 -0.043095409870 -0.172381639481 9.744350433350
82 4878.954297000000 -0.002130528912 -0.000000000000 -0.006391586736 -0.033518649638 -0.162804871798 9.782657623291
83 4878.956297000000 -0.005326322280 -0.002130528912 -0.006391586736 0.000000000000 -0.201111912727 9.801811218262
84 4878.958297000000 -0.002130528912 -0.004261057824 -0.003195793368 -0.009576757438 -0.148439735174 9.739562034607
85 4878.960297000000 -0.004261057824 -0.005326322280 -0.006391586736 -0.086190819740 -0.143651366234 9.825753211975
86 4878.962297000000 -0.006391586736 -0.006391586736 -0.005326322280 -0.028730273247 -0.134074598551 9.749138832092
87 4878.964300000000 -0.002130528912 -0.009587380104 -0.004261057824 -0.076614059508 -0.143651366234 9.648583412170
88 4878.966299000000 -0.007456851192 -0.006391586736 -0.003195793368 -0.095767572522 -0.148439735174 9.643795013428
89 4878.968305000000 -0.007456851192 -0.006391586736 -0.003195793368 -0.095767572522 -0.148439735174 9.643795013428
90 4878.970306000000 0.003195793368 -0.002130528912 -0.006391586736 -0.081402435899 -0.196323528886 9.667737007141
91 4878.972301000000 -0.001065264456 -0.000000000000 -0.008522115648 -0.019153514877 -0.153228119016 9.725196838379
92 4878.974300000000 -0.003195793368 0.003195793368 -0.005326322280 -0.038307029754 -0.172381639481 9.739562034607
93 4878.976299000000 -0.003195793368 0.002130528912 -0.006391586736 -0.043095409870 -0.158016502857 9.758715629578
94 4878.978300000000 -0.003195793368 0.001065264456 -0.003195793368 -0.023941893131 -0.153228119016 9.768292427063
95 4878.980300000000 -0.008522115648 -0.004261057824 -0.006391586736 -0.062248922884 -0.138862982392 9.763504028320
96 4878.982297000000 -0.007456851192 -0.004261057824 -0.007456851192 -0.057460546494 -0.191535145044 9.715620040894
97 4878.984299000000 -0.008522115648 -0.003195793368 -0.004261057824 -0.071825683117 -0.124497845769 9.658160209656
98 4878.986300000000 -0.007456851192 -0.004261057824 -0.002130528912 -0.090979196131 -0.162804871798 9.629429817200
99 4878.988298000000 -0.007456851192 -0.004261057824 -0.003195793368 -0.090979196131 -0.138862982392 9.653371810913
100 4878.990296000000 -0.004261057824 -0.001065264456 -0.003195793368 -0.071825683117 -0.162804871798 9.667737007141
101 4878.992298000000 0.002130528912 0.001065264456 -0.005326322280 -0.081402435899 -0.167593255639 9.648583412170
102 4878.994297000000 -0.001065264456 0.001065264456 -0.004261057824 -0.062248922884 -0.172381639481 9.710831642151
103 4878.996297000000 -0.003195793368 0.001065264456 -0.004261057824 -0.047883786261 -0.167593255639 9.720408439636
104 4878.998298000000 -0.002130528912 -0.001065264456 -0.004261057824 -0.004788378719 -0.162804871798 9.844906806946
105 4879.000301000000 -0.001065264456 -0.003195793368 -0.004261057824 -0.062248922884 -0.143651366234 9.801811218262
106 4879.002299000000 -0.005326322280 -0.007456851192 -0.004261057824 -0.052672166377 -0.129286229610 9.758715629578
107 4879.004301000000 -0.009587380104 -0.007456851192 -0.006391586736 -0.076614059508 -0.129286229610 9.768292427063
108 4879.006304000000 -0.007456851192 -0.006391586736 -0.005326322280 -0.062248922884 -0.148439735174 9.725196838379
109 4879.008299000000 -0.007456851192 -0.003195793368 -0.006391586736 -0.110132709146 -0.148439735174 9.672525405884
110 4879.010299000000 -0.005326322280 -0.001065264456 -0.008522115648 -0.057460546494 -0.114921092987 9.691679000854
111 4879.012301000000 -0.003195793368 -0.000000000000 -0.005326322280 -0.057460546494 -0.153228119016 9.749138832092
112 4879.014301000000 -0.003195793368 0.001065264456 -0.001065264456 -0.009576757438 -0.148439735174 9.686890602112
113 4879.016307000000 -0.005326322280 -0.001065264456 -0.003195793368 -0.028730273247 -0.138862982392 9.744350433350
114 4879.018306000000 -0.003195793368 -0.003195793368 -0.006391586736 -0.043095409870 -0.148439735174 9.787446022034
115 4879.020310000000 -0.006391586736 -0.000000000000 -0.004261057824 -0.043095409870 -0.162804871798 9.816176414490
116 4879.022305000000 -0.006391586736 -0.005326322280 -0.003195793368 -0.057460546494 -0.167593255639 9.777869224548
117 4879.024304000000 -0.002130528912 -0.008522115648 -0.003195793368 -0.062248922884 -0.090979196131 9.710831642151
118 4879.026302000000 -0.007456851192 -0.009587380104 -0.004261057824 -0.076614059508 -0.162804871798 9.720408439636
119 4879.028302000000 -0.007456851192 -0.006391586736 -0.003195793368 -0.071825683117 -0.129286229610 9.653371810913
120 4879.030302000000 -0.003195793368 -0.002130528912 -0.005326322280 -0.081402435899 -0.186746776104 9.648583412170
121 4879.032300000000 0.000000000000 -0.001065264456 -0.002130528912 -0.062248922884 -0.148439735174 9.667737007141
122 4879.034299000000 0.001065264456 0.002130528912 -0.005326322280 -0.033518649638 -0.138862982392 9.782657623291
123 4879.036297000000 0.000000000000 0.001065264456 -0.007456851192 -0.004788378719 -0.148439735174 9.787446022034
124 4879.038299000000 -0.001065264456 -0.002130528912 -0.006391586736 -0.009576757438 -0.177170008421 9.816176414490
125 4879.040302000000 -0.006391586736 -0.002130528912 -0.007456851192 -0.014365136623 -0.181958392262 9.782657623291
126 4879.042300000000 -0.006391586736 -0.000000000000 -0.005326322280 -0.014365136623 -0.134074598551 9.749138832092
127 4879.044297000000 -0.008522115648 -0.006391586736 -0.004261057824 -0.062248922884 -0.172381639481 9.758715629578
128 4879.046297000000 -0.008522115648 -0.006391586736 -0.004261057824 -0.062248922884 -0.172381639481 9.758715629578
129 4879.048299000000 -0.007456851192 -0.006391586736 -0.004261057824 -0.071825683117 -0.134074598551 9.715620040894
130 4879.050299000000 -0.004261057824 -0.004261057824 -0.004261057824 -0.076614059508 -0.138862982392 9.677313804626
131 4879.052304000000 -0.003195793368 -0.002130528912 -0.005326322280 -0.038307029754 -0.148439735174 9.662948608398
132 4879.054301000000 -0.002130528912 -0.001065264456 -0.002130528912 -0.028730273247 -0.205900281668 9.696466445923
133 4879.056301000000 -0.002130528912 -0.000000000000 -0.003195793368 0.000000000000 -0.196323528886 9.715620040894
134 4879.058300000000 -0.003195793368 0.002130528912 -0.005326322280 -0.004788378719 -0.186746776104 9.773080825806
135 4879.060301000000 -0.004261057824 0.006391586736 -0.004261057824 -0.043095409870 -0.196323528886 9.734773635864
136 4879.062299000000 -0.006391586736 0.002130528912 -0.008522115648 -0.028730273247 -0.186746776104 9.763504028320
137 4879.064298000000 -0.007456851192 -0.005326322280 -0.006391586736 -0.033518649638 -0.172381639481 9.787446022034
138 4879.066299000000 -0.005326322280 -0.006391586736 -0.006391586736 -0.062248922884 -0.124497845769 9.734773635864
139 4879.068304000000 -0.007456851192 -0.005326322280 -0.006391586736 -0.047883786261 -0.143651366234 9.653371810913
140 4879.070304000000 -0.007456851192 -0.007456851192 -0.006391586736 -0.100555956364 -0.119709469378 9.643795013428
141 4879.072303000000 -0.006391586736 -0.002130528912 -0.004261057824 -0.071825683117 -0.181958392262 9.701254844666
142 4879.074298000000 -0.004261057824 0.001065264456 -0.008522115648 -0.067037299275 -0.210688665509 9.758715629578
143 4879.076297000000 -0.004261057824 0.001065264456 -0.008522115648 -0.067037299275 -0.210688665509 9.758715629578
144 4879.078300000000 0.000000000000 0.001065264456 -0.004261057824 -0.028730273247 -0.158016502857 9.749138832092
145 4879.080297000000 -0.001065264456 0.001065264456 -0.005326322280 -0.028730273247 -0.153228119016 9.825753211975
146 4879.082308000000 -0.005326322280 -0.001065264456 -0.005326322280 -0.038307029754 -0.134074598551 9.787446022034
147 4879.084300000000 -0.005326322280 -0.002130528912 -0.005326322280 -0.019153514877 -0.124497845769 9.753927230835
148 4879.086301000000 -0.006391586736 -0.004261057824 -0.005326322280 -0.038307029754 -0.134074598551 9.792234420776
149 4879.088299000000 -0.011717909016 -0.005326322280 -0.007456851192 -0.090979196131 -0.095767572522 9.710831642151
150 4879.090298000000 -0.005326322280 -0.006391586736 -0.007456851192 -0.071825683117 -0.148439735174 9.686890602112
151 4879.092300000000 -0.005326322280 -0.003195793368 -0.006391586736 -0.043095409870 -0.196323528886 9.677313804626
152 4879.094299000000 -0.008522115648 -0.000000000000 -0.005326322280 -0.081402435899 -0.143651366234 9.639006614685
153 4879.096300000000 -0.003195793368 0.003195793368 -0.004261057824 -0.019153514877 -0.201111912727 9.696466445923
154 4879.098299000000 -0.003195793368 -0.000000000000 -0.005326322280 -0.047883786261 -0.220265418291 9.792234420776
155 4879.100299000000 -0.005326322280 0.001065264456 -0.003195793368 -0.033518649638 -0.153228119016 9.753927230835
156 4879.102300000000 -0.005326322280 0.002130528912 -0.008522115648 -0.057460546494 -0.177170008421 9.801811218262
157 4879.104299000000 -0.007456851192 -0.002130528912 -0.003195793368 -0.009576757438 -0.129286229610 9.792234420776
158 4879.106298000000 -0.008522115648 -0.003195793368 -0.003195793368 -0.023941893131 -0.134074598551 9.758715629578
159 4879.108297000000 -0.006391586736 -0.005326322280 -0.003195793368 -0.038307029754 -0.129286229610 9.749138832092
160 4879.110296000000 -0.007456851192 -0.004261057824 -0.000000000000 -0.043095409870 -0.162804871798 9.715620040894
161 4879.112301000000 -0.008522115648 -0.006391586736 -0.004261057824 -0.081402435899 -0.177170008421 9.672525405884
162 4879.114296000000 -0.005326322280 -0.003195793368 -0.006391586736 -0.090979196131 -0.124497845769 9.682102203369
163 4879.116299000000 -0.003195793368 -0.001065264456 -0.007456851192 -0.110132709146 -0.148439735174 9.605487823486
164 4879.118300000000 -0.003195793368 0.002130528912 -0.006391586736 -0.038307029754 -0.181958392262 9.729985237122
165 4879.120299000000 -0.004261057824 0.004261057824 -0.005326322280 -0.033518649638 -0.158016502857 9.734773635864
166 4879.122304000000 -0.004261057824 -0.000000000000 -0.009587380104 -0.004788378719 -0.172381639481 9.792234420776
167 4879.124301000000 -0.004261057824 -0.003195793368 -0.005326322280 -0.038307029754 -0.177170008421 9.777869224548
168 4879.126301000000 -0.006391586736 -0.007456851192 -0.007456851192 -0.081402435899 -0.162804871798 9.782657623291
169 4879.128301000000 -0.009587380104 -0.005326322280 -0.006391586736 -0.043095409870 -0.138862982392 9.691679000854
170 4879.130300000000 -0.009587380104 -0.005326322280 -0.007456851192 -0.052672166377 -0.138862982392 9.725196838379
171 4879.132301000000 -0.009587380104 -0.005326322280 -0.007456851192 -0.052672166377 -0.138862982392 9.725196838379
172 4879.134300000000 -0.007456851192 -0.003195793368 -0.006391586736 -0.119709469378 -0.110132709146 9.643795013428
173 4879.136299000000 -0.004261057824 -0.004261057824 -0.005326322280 -0.086190819740 -0.119709469378 9.677313804626
174 4879.138296000000 -0.002130528912 0.001065264456 -0.004261057824 -0.110132709146 -0.186746776104 9.672525405884
175 4879.140296000000 0.001065264456 0.003195793368 -0.005326322280 -0.038307029754 -0.162804871798 9.777869224548
176 4879.142297000000 -0.002130528912 0.001065264456 -0.007456851192 -0.023941893131 -0.177170008421 9.744350433350
177 4879.144296000000 -0.003195793368 0.003195793368 -0.008522115648 -0.014365136623 -0.158016502857 9.734773635864
178 4879.146296000000 -0.004261057824 -0.003195793368 -0.005326322280 -0.033518649638 -0.143651366234 9.811388015747
179 4879.148305000000 -0.009587380104 -0.005326322280 -0.002130528912 -0.014365136623 -0.158016502857 9.744350433350
180 4879.150300000000 -0.008522115648 -0.005326322280 -0.003195793368 -0.071825683117 -0.158016502857 9.710831642151
181 4879.152301000000 -0.006391586736 -0.005326322280 -0.005326322280 -0.067037299275 -0.167593255639 9.744350433350
182 4879.154300000000 -0.007456851192 -0.002130528912 -0.005326322280 -0.043095409870 -0.172381639481 9.662948608398
183 4879.156300000000 -0.006391586736 -0.004261057824 -0.005326322280 -0.110132709146 -0.177170008421 9.648583412170
184 4879.158299000000 -0.003195793368 -0.002130528912 -0.005326322280 -0.095767572522 -0.186746776104 9.667737007141
185 4879.160300000000 -0.001065264456 -0.000000000000 -0.003195793368 -0.043095409870 -0.177170008421 9.648583412170
186 4879.162299000000 0.000000000000 0.001065264456 -0.004261057824 -0.033518649638 -0.143651366234 9.696466445923
187 4879.164300000000 0.002130528912 -0.000000000000 -0.004261057824 -0.014365136623 -0.162804871798 9.830541610718
188 4879.166299000000 -0.006391586736 -0.001065264456 -0.008522115648 -0.047883786261 -0.172381639481 9.753927230835
189 4879.168296000000 -0.006391586736 -0.003195793368 -0.007456851192 -0.028730273247 -0.158016502857 9.777869224548
190 4879.170297000000 -0.006391586736 -0.004261057824 -0.004261057824 -0.052672166377 -0.124497845769 9.797022819519
191 4879.172296000000 -0.004261057824 -0.006391586736 -0.007456851192 -0.086190819740 -0.119709469378 9.734773635864
192 4879.174303000000 -0.009587380104 -0.005326322280 -0.003195793368 -0.057460546494 -0.162804871798 9.653371810913
193 4879.176298000000 -0.009587380104 -0.003195793368 -0.001065264456 -0.052672166377 -0.186746776104 9.648583412170
194 4879.178297000000 -0.005326322280 -0.002130528912 -0.004261057824 -0.119709469378 -0.138862982392 9.643795013428
195 4879.180295000000 -0.005326322280 -0.001065264456 -0.006391586736 -0.071825683117 -0.158016502857 9.658160209656
196 4879.182305000000 -0.005326322280 0.001065264456 -0.005326322280 -0.062248922884 -0.172381639481 9.734773635864
197 4879.184300000000 0.000000000000 0.003195793368 -0.004261057824 -0.028730273247 -0.167593255639 9.739562034607
198 4879.186300000000 0.001065264456 0.004261057824 -0.005326322280 -0.067037299275 -0.201111912727 9.753927230835
199 4879.188313000000 -0.004261057824 -0.003195793368 -0.007456851192 -0.052672166377 -0.162804871798 9.715620040894
200 4879.190308000000 -0.007456851192 -0.005326322280 -0.006391586736 -0.067037299275 -0.124497845769 9.787446022034
201 4879.192305000000 -0.007456851192 -0.007456851192 -0.002130528912 -0.090979196131 -0.181958392262 9.739562034607
202 4879.194304000000 -0.009587380104 -0.007456851192 -0.006391586736 -0.090979196131 -0.162804871798 9.686890602112
203 4879.196304000000 -0.006391586736 -0.005326322280 -0.008522115648 -0.090979196131 -0.143651366234 9.672525405884
204 4879.198302000000 -0.002130528912 -0.001065264456 -0.004261057824 -0.067037299275 -0.181958392262 9.629429817200
205 4879.200302000000 -0.003195793368 -0.002130528912 -0.005326322280 -0.086190819740 -0.181958392262 9.667737007141
206 4879.202302000000 -0.002130528912 -0.001065264456 -0.003195793368 -0.067037299275 -0.162804871798 9.715620040894
207 4879.204303000000 -0.002130528912 0.001065264456 -0.005326322280 -0.033518649638 -0.201111912727 9.710831642151
208 4879.206300000000 -0.001065264456 -0.001065264456 -0.005326322280 -0.071825683117 -0.167593255639 9.749138832092
209 4879.208299000000 0.000000000000 -0.004261057824 -0.005326322280 -0.023941893131 -0.138862982392 9.777869224548
210 4879.210298000000 -0.003195793368 -0.002130528912 -0.006391586736 -0.067037299275 -0.138862982392 9.782657623291
211 4879.212299000000 -0.004261057824 -0.001065264456 -0.006391586736 -0.038307029754 -0.138862982392 9.782657623291
212 4879.214299000000 -0.005326322280 -0.005326322280 -0.002130528912 -0.028730273247 -0.158016502857 9.682102203369
213 4879.216303000000 -0.008522115648 -0.005326322280 -0.004261057824 -0.057460546494 -0.134074598551 9.677313804626
214 4879.218304000000 -0.007456851192 -0.004261057824 -0.004261057824 -0.095767572522 -0.162804871798 9.715620040894
215 4879.220301000000 -0.005326322280 -0.002130528912 -0.003195793368 -0.052672166377 -0.143651366234 9.667737007141
216 4879.222301000000 -0.003195793368 -0.000000000000 -0.003195793368 -0.047883786261 -0.143651366234 9.653371810913
217 4879.224306000000 -0.003195793368 0.001065264456 -0.006391586736 -0.019153514877 -0.167593255639 9.715620040894
218 4879.226303000000 0.000000000000 -0.000000000000 -0.005326322280 -0.043095409870 -0.153228119016 9.797022819519
219 4879.228302000000 -0.004261057824 0.001065264456 -0.004261057824 0.014365136623 -0.158016502857 9.773080825806
220 4879.230299000000 -0.006391586736 -0.002130528912 -0.004261057824 0.000000000000 -0.153228119016 9.773080825806
221 4879.232301000000 -0.007456851192 -0.003195793368 -0.004261057824 -0.047883786261 -0.134074598551 9.753927230835
222 4879.234300000000 -0.008522115648 -0.006391586736 -0.005326322280 -0.067037299275 -0.196323528886 9.744350433350
223 4879.236300000000 -0.008522115648 -0.008522115648 -0.007456851192 -0.076614059508 -0.148439735174 9.672525405884
224 4879.238298000000 -0.006391586736 -0.004261057824 -0.004261057824 -0.081402435899 -0.153228119016 9.672525405884
225 4879.240299000000 -0.005326322280 -0.003195793368 -0.004261057824 -0.100555956364 -0.134074598551 9.667737007141
226 4879.242299000000 -0.002130528912 0.002130528912 -0.006391586736 -0.076614059508 -0.158016502857 9.667737007141
227 4879.244300000000 -0.004261057824 0.002130528912 -0.006391586736 -0.019153514877 -0.148439735174 9.725196838379
228 4879.246300000000 -0.002130528912 0.001065264456 -0.006391586736 -0.043095409870 -0.191535145044 9.720408439636
229 4879.248300000000 -0.005326322280 0.002130528912 -0.005326322280 -0.023941893131 -0.172381639481 9.720408439636
230 4879.250300000000 -0.005326322280 -0.002130528912 -0.005326322280 -0.028730273247 -0.191535145044 9.792234420776
231 4879.252300000000 -0.006391586736 -0.005326322280 -0.006391586736 -0.043095409870 -0.158016502857 9.753927230835
232 4879.254305000000 -0.006391586736 -0.005326322280 -0.005326322280 -0.028730273247 -0.143651366234 9.706043243408
233 4879.256299000000 -0.006391586736 -0.006391586736 -0.003195793368 -0.038307029754 -0.110132709146 9.686890602112
234 4879.258298000000 -0.006391586736 -0.005326322280 -0.002130528912 -0.067037299275 -0.138862982392 9.696466445923
235 4879.260297000000 -0.005326322280 -0.004261057824 -0.002130528912 -0.062248922884 -0.172381639481 9.648583412170
236 4879.262297000000 -0.006391586736 -0.003195793368 -0.003195793368 -0.062248922884 -0.153228119016 9.672525405884
237 4879.264297000000 -0.002130528912 -0.000000000000 -0.005326322280 -0.081402435899 -0.148439735174 9.677313804626
238 4879.266297000000 -0.002130528912 -0.000000000000 -0.005326322280 -0.057460546494 -0.148439735174 9.729985237122
239 4879.268297000000 -0.005326322280 0.002130528912 -0.005326322280 -0.052672166377 -0.186746776104 9.701254844666
240 4879.270297000000 -0.003195793368 0.001065264456 -0.004261057824 -0.038307029754 -0.143651366234 9.734773635864
241 4879.272297000000 -0.006391586736 -0.001065264456 -0.005326322280 -0.023941893131 -0.119709469378 9.768292427063
242 4879.274297000000 -0.006391586736 -0.001065264456 -0.005326322280 -0.023941893131 -0.119709469378 9.768292427063
243 4879.276309000000 -0.006391586736 -0.006391586736 -0.003195793368 -0.028730273247 -0.162804871798 9.753927230835
244 4879.278303000000 -0.009587380104 -0.006391586736 -0.002130528912 -0.071825683117 -0.124497845769 9.686890602112
245 4879.280300000000 -0.007456851192 -0.004261057824 -0.004261057824 -0.071825683117 -0.167593255639 9.720408439636
246 4879.282298000000 -0.007456851192 -0.005326322280 -0.004261057824 -0.067037299275 -0.119709469378 9.653371810913
247 4879.284300000000 -0.006391586736 -0.004261057824 -0.004261057824 -0.052672166377 -0.201111912727 9.648583412170
248 4879.286299000000 -0.003195793368 0.001065264456 -0.001065264456 -0.038307029754 -0.134074598551 9.672525405884
249 4879.288305000000 -0.002130528912 0.004261057824 -0.005326322280 -0.023941893131 -0.191535145044 9.734773635864
250 4879.290300000000 -0.003195793368 0.002130528912 -0.005326322280 -0.009576757438 -0.177170008421 9.758715629578
251 4879.292303000000 -0.003195793368 -0.002130528912 -0.008522115648 -0.023941893131 -0.138862982392 9.749138832092
252 4879.294300000000 -0.006391586736 -0.004261057824 -0.005326322280 -0.028730273247 -0.153228119016 9.734773635864
253 4879.296300000000 -0.005326322280 -0.004261057824 -0.004261057824 -0.057460546494 -0.148439735174 9.739562034607
254 4879.298298000000 -0.010652644560 -0.007456851192 -0.006391586736 -0.071825683117 -0.124497845769 9.710831642151
255 4879.300297000000 -0.008522115648 -0.006391586736 -0.005326322280 -0.076614059508 -0.148439735174 9.677313804626
256 4879.302298000000 -0.005326322280 -0.004261057824 -0.006391586736 -0.076614059508 -0.134074598551 9.615064620972
257 4879.304297000000 -0.005326322280 -0.002130528912 -0.008522115648 -0.038307029754 -0.181958392262 9.691679000854
258 4879.306298000000 -0.005326322280 -0.003195793368 -0.005326322280 -0.057460546494 -0.124497845769 9.720408439636
259 4879.308296000000 -0.006391586736 -0.000000000000 -0.003195793368 -0.038307029754 -0.167593255639 9.691679000854
260 4879.310298000000 -0.002130528912 0.003195793368 -0.004261057824 0.023941893131 -0.196323528886 9.773080825806
261 4879.312297000000 -0.001065264456 -0.002130528912 -0.005326322280 -0.033518649638 -0.177170008421 9.787446022034
262 4879.314298000000 -0.006391586736 -0.003195793368 -0.003195793368 -0.004788378719 -0.153228119016 9.825753211975
263 4879.316307000000 -0.006391586736 -0.003195793368 -0.003195793368 -0.004788378719 -0.153228119016 9.825753211975
264 4879.318301000000 -0.008522115648 -0.007456851192 -0.006391586736 -0.071825683117 -0.124497845769 9.715620040894
265 4879.320300000000 -0.008522115648 -0.006391586736 -0.003195793368 -0.071825683117 -0.134074598551 9.696466445923
266 4879.322303000000 -0.008522115648 -0.007456851192 -0.004261057824 -0.043095409870 -0.191535145044 9.634218215942
267 4879.324304000000 -0.005326322280 -0.005326322280 -0.004261057824 -0.090979196131 -0.158016502857 9.653371810913
268 4879.326307000000 -0.005326322280 -0.002130528912 -0.006391586736 -0.086190819740 -0.177170008421 9.662948608398
269 4879.328301000000 -0.003195793368 0.003195793368 -0.003195793368 -0.047883786261 -0.158016502857 9.753927230835
270 4879.330301000000 0.000000000000 0.002130528912 -0.003195793368 -0.052672166377 -0.201111912727 9.729985237122
271 4879.332300000000 -0.001065264456 -0.001065264456 -0.006391586736 -0.019153514877 -0.181958392262 9.768292427063
272 4879.334300000000 -0.004261057824 -0.002130528912 -0.003195793368 -0.023941893131 -0.177170008421 9.744350433350
273 4879.336300000000 -0.010652644560 -0.002130528912 -0.002130528912 -0.028730273247 -0.134074598551 9.787446022034
274 4879.338300000000 -0.008522115648 -0.003195793368 -0.004261057824 -0.071825683117 -0.162804871798 9.768292427063
275 4879.340297000000 -0.008522115648 -0.005326322280 -0.007456851192 -0.057460546494 -0.167593255639 9.706043243408
276 4879.342297000000 -0.005326322280 -0.006391586736 -0.007456851192 -0.090979196131 -0.134074598551 9.682102203369
277 4879.344297000000 -0.006391586736 -0.005326322280 -0.008522115648 -0.071825683117 -0.138862982392 9.662948608398
278 4879.346297000000 -0.003195793368 -0.004261057824 -0.003195793368 -0.090979196131 -0.148439735174 9.667737007141
279 4879.348296000000 -0.002130528912 0.001065264456 -0.002130528912 -0.086190819740 -0.148439735174 9.691679000854
280 4879.350300000000 -0.003195793368 0.003195793368 -0.005326322280 -0.023941893131 -0.181958392262 9.729985237122
281 4879.352299000000 -0.004261057824 0.004261057824 -0.007456851192 -0.043095409870 -0.177170008421 9.811388015747
282 4879.354301000000 -0.003195793368 -0.004261057824 -0.004261057824 -0.028730273247 -0.186746776104 9.792234420776
283 4879.356299000000 -0.004261057824 -0.002130528912 -0.004261057824 -0.028730273247 -0.162804871798 9.753927230835
284 4879.358306000000 -0.006391586736 -0.004261057824 -0.004261057824 -0.019153514877 -0.114921092987 9.720408439636
285 4879.360300000000 -0.008522115648 -0.005326322280 -0.006391586736 -0.043095409870 -0.119709469378 9.777869224548
286 4879.362306000000 -0.005326322280 -0.004261057824 -0.006391586736 -0.071825683117 -0.148439735174 9.672525405884
287 4879.364303000000 -0.005326322280 -0.004261057824 -0.005326322280 -0.033518649638 -0.167593255639 9.658160209656
288 4879.366303000000 -0.003195793368 -0.003195793368 -0.002130528912 -0.062248922884 -0.162804871798 9.696466445923
289 4879.368300000000 -0.002130528912 -0.002130528912 -0.006391586736 -0.057460546494 -0.181958392262 9.662948608398
290 4879.370298000000 -0.001065264456 0.002130528912 -0.008522115648 -0.095767572522 -0.191535145044 9.706043243408
291 4879.372301000000 0.000000000000 -0.000000000000 -0.007456851192 -0.023941893131 -0.177170008421 9.801811218262
292 4879.374299000000 -0.005326322280 0.002130528912 -0.007456851192 -0.033518649638 -0.153228119016 9.854483604431
293 4879.376310000000 -0.003195793368 -0.001065264456 -0.006391586736 -0.038307029754 -0.181958392262 9.820964813232
294 4879.378310000000 -0.006391586736 -0.003195793368 -0.004261057824 -0.043095409870 -0.153228119016 9.763504028320
295 4879.380303000000 -0.008522115648 -0.006391586736 -0.006391586736 -0.033518649638 -0.162804871798 9.739562034607
296 4879.382303000000 -0.008522115648 -0.007456851192 -0.005326322280 -0.043095409870 -0.134074598551 9.758715629578
297 4879.384303000000 -0.006391586736 -0.007456851192 -0.005326322280 -0.067037299275 -0.143651366234 9.677313804626
298 4879.386302000000 -0.008522115648 -0.004261057824 -0.004261057824 -0.038307029754 -0.172381639481 9.667737007141
299 4879.388301000000 -0.006391586736 -0.001065264456 -0.004261057824 -0.067037299275 -0.153228119016 9.658160209656
300 4879.390301000000 -0.004261057824 -0.001065264456 -0.005326322280 -0.057460546494 -0.186746776104 9.658160209656
301 4879.392300000000 -0.002130528912 -0.001065264456 -0.003195793368 -0.043095409870 -0.201111912727 9.710831642151
302 4879.394304000000 -0.004261057824 -0.001065264456 -0.005326322280 -0.023941893131 -0.205900281668 9.725196838379
303 4879.396301000000 -0.005326322280 -0.001065264456 -0.005326322280 -0.047883786261 -0.162804871798 9.806599617004
304 4879.398299000000 -0.002130528912 -0.001065264456 -0.003195793368 -0.023941893131 -0.167593255639 9.744350433350
305 4879.400297000000 -0.005326322280 -0.002130528912 -0.005326322280 -0.033518649638 -0.143651366234 9.792234420776
306 4879.402298000000 -0.008522115648 -0.007456851192 -0.007456851192 -0.057460546494 -0.105344332755 9.753927230835
307 4879.404297000000 -0.008522115648 -0.009587380104 -0.007456851192 -0.110132709146 -0.129286229610 9.677313804626
308 4879.406301000000 -0.006391586736 -0.004261057824 -0.002130528912 -0.052672166377 -0.153228119016 9.720408439636
309 4879.408297000000 -0.004261057824 -0.004261057824 -0.003195793368 -0.067037299275 -0.186746776104 9.648583412170
310 4879.410300000000 -0.005326322280 -0.002130528912 -0.004261057824 -0.023941893131 -0.177170008421 9.672525405884
311 4879.412298000000 -0.003195793368 0.001065264456 -0.003195793368 -0.043095409870 -0.148439735174 9.753927230835
312 4879.414298000000 -0.004261057824 0.001065264456 -0.001065264456 -0.009576757438 -0.181958392262 9.706043243408
313 4879.416297000000 -0.003195793368 -0.000000000000 -0.005326322280 -0.047883786261 -0.191535145044 9.792234420776
314 4879.418299000000 -0.002130528912 -0.001065264456 -0.007456851192 -0.019153514877 -0.172381639481 9.797022819519
315 4879.420301000000 -0.006391586736 -0.003195793368 -0.007456851192 -0.023941893131 -0.191535145044 9.816176414490
316 4879.422300000000 -0.008522115648 -0.004261057824 -0.007456851192 -0.067037299275 -0.138862982392 9.749138832092
317 4879.424299000000 -0.009587380104 -0.006391586736 -0.004261057824 -0.095767572522 -0.153228119016 9.729985237122
318 4879.426297000000 -0.006391586736 -0.004261057824 -0.003195793368 -0.071825683117 -0.153228119016 9.710831642151
319 4879.428303000000 -0.005326322280 -0.003195793368 -0.006391586736 -0.076614059508 -0.177170008421 9.643795013428
320 4879.430307000000 -0.005326322280 -0.003195793368 -0.005326322280 -0.047883786261 -0.167593255639 9.662948608398
321 4879.432298000000 -0.004261057824 0.001065264456 -0.005326322280 -0.076614059508 -0.181958392262 9.715620040894
322 4879.434303000000 -0.005326322280 0.004261057824 -0.005326322280 -0.038307029754 -0.134074598551 9.749138832092
323 4879.436301000000 -0.004261057824 -0.001065264456 -0.004261057824 -0.014365136623 -0.191535145044 9.782657623291
324 4879.438298000000 -0.004261057824 -0.002130528912 -0.006391586736 -0.033518649638 -0.172381639481 9.744350433350
325 4879.440299000000 -0.006391586736 -0.002130528912 -0.005326322280 -0.014365136623 -0.138862982392 9.768292427063
326 4879.442299000000 -0.005326322280 -0.004261057824 -0.003195793368 -0.047883786261 -0.162804871798 9.725196838379
327 4879.444300000000 -0.006391586736 -0.006391586736 -0.005326322280 -0.062248922884 -0.119709469378 9.734773635864
328 4879.446299000000 -0.008522115648 -0.007456851192 -0.004261057824 -0.090979196131 -0.158016502857 9.686890602112
329 4879.448300000000 -0.008522115648 -0.007456851192 -0.004261057824 -0.067037299275 -0.134074598551 9.672525405884
330 4879.450302000000 -0.007456851192 -0.003195793368 -0.002130528912 -0.090979196131 -0.138862982392 9.648583412170
331 4879.452298000000 -0.002130528912 -0.002130528912 0.001065264456 -0.076614059508 -0.158016502857 9.696466445923
332 4879.454298000000 -0.002130528912 0.001065264456 -0.003195793368 -0.043095409870 -0.172381639481 9.653371810913
333 4879.456296000000 0.000000000000 0.002130528912 -0.007456851192 -0.009576757438 -0.148439735174 9.773080825806
334 4879.458296000000 -0.005326322280 -0.001065264456 -0.003195793368 -0.038307029754 -0.158016502857 9.792234420776
335 4879.460296000000 -0.005326322280 -0.004261057824 -0.004261057824 -0.086190819740 -0.138862982392 9.816176414490
336 4879.462300000000 -0.005326322280 -0.002130528912 -0.004261057824 -0.057460546494 -0.143651366234 9.782657623291
337 4879.464308000000 -0.006391586736 -0.005326322280 -0.003195793368 -0.028730273247 -0.143651366234 9.682102203369
338 4879.466299000000 -0.010652644560 -0.006391586736 -0.003195793368 -0.071825683117 -0.153228119016 9.706043243408
339 4879.468299000000 -0.006391586736 -0.003195793368 -0.003195793368 -0.057460546494 -0.138862982392 9.701254844666
340 4879.470301000000 -0.009587380104 -0.004261057824 -0.003195793368 -0.100555956364 -0.162804871798 9.605487823486
341 4879.472300000000 -0.004261057824 -0.003195793368 -0.003195793368 -0.090979196131 -0.148439735174 9.710831642151
342 4879.474300000000 -0.003195793368 -0.000000000000 -0.006391586736 -0.047883786261 -0.148439735174 9.696466445923
343 4879.476298000000 -0.003195793368 -0.000000000000 -0.006391586736 -0.047883786261 -0.148439735174 9.696466445923
344 4879.478299000000 -0.002130528912 0.001065264456 -0.003195793368 -0.052672166377 -0.177170008421 9.763504028320
345 4879.480304000000 -0.002130528912 -0.001065264456 -0.002130528912 -0.009576757438 -0.167593255639 9.773080825806
346 4879.482301000000 -0.006391586736 -0.001065264456 -0.004261057824 -0.062248922884 -0.129286229610 9.797022819519
347 4879.484299000000 -0.006391586736 -0.003195793368 -0.003195793368 -0.057460546494 -0.119709469378 9.744350433350
348 4879.486297000000 -0.008522115648 -0.005326322280 -0.004261057824 -0.086190819740 -0.158016502857 9.725196838379
349 4879.488296000000 -0.008522115648 -0.007456851192 -0.004261057824 -0.047883786261 -0.138862982392 9.710831642151
350 4879.490297000000 -0.005326322280 -0.006391586736 -0.004261057824 -0.043095409870 -0.172381639481 9.648583412170
351 4879.492297000000 -0.002130528912 -0.005326322280 -0.002130528912 -0.043095409870 -0.148439735174 9.658160209656
352 4879.494301000000 -0.004261057824 -0.000000000000 -0.005326322280 -0.047883786261 -0.162804871798 9.706043243408
353 4879.496301000000 0.000000000000 -0.002130528912 -0.005326322280 -0.071825683117 -0.201111912727 9.715620040894
354 4879.498301000000 -0.003195793368 -0.000000000000 -0.007456851192 -0.014365136623 -0.177170008421 9.825753211975
355 4879.500304000000 -0.004261057824 0.003195793368 -0.005326322280 -0.057460546494 -0.205900281668 9.801811218262
356 4879.502300000000 -0.003195793368 -0.003195793368 -0.007456851192 -0.067037299275 -0.119709469378 9.820964813232
357 4879.504300000000 -0.004261057824 -0.007456851192 -0.008522115648 -0.052672166377 -0.114921092987 9.763504028320
358 4879.506301000000 -0.009587380104 -0.006391586736 -0.005326322280 -0.047883786261 -0.110132709146 9.797022819519
359 4879.508301000000 -0.009587380104 -0.007456851192 -0.006391586736 -0.105344332755 -0.167593255639 9.662948608398
360 4879.510299000000 -0.005326322280 -0.007456851192 -0.004261057824 -0.086190819740 -0.124497845769 9.691679000854
361 4879.512300000000 -0.006391586736 -0.004261057824 -0.005326322280 -0.076614059508 -0.167593255639 9.696466445923
362 4879.514298000000 -0.006391586736 -0.002130528912 -0.003195793368 -0.081402435899 -0.172381639481 9.715620040894
363 4879.516298000000 -0.002130528912 0.002130528912 -0.003195793368 -0.071825683117 -0.167593255639 9.720408439636
364 4879.518297000000 0.000000000000 0.004261057824 -0.005326322280 -0.033518649638 -0.153228119016 9.706043243408
365 4879.520298000000 -0.002130528912 0.002130528912 -0.003195793368 0.014365136623 -0.143651366234 9.768292427063
366 4879.522297000000 -0.003195793368 -0.001065264456 -0.008522115648 0.004788378719 -0.181958392262 9.792234420776
367 4879.524298000000 -0.006391586736 -0.003195793368 -0.005326322280 -0.033518649638 -0.148439735174 9.773080825806
368 4879.526297000000 -0.007456851192 -0.006391586736 -0.002130528912 -0.076614059508 -0.158016502857 9.787446022034
369 4879.528298000000 -0.010652644560 -0.008522115648 -0.006391586736 -0.062248922884 -0.105344332755 9.753927230835
370 4879.530303000000 -0.010652644560 -0.005326322280 -0.007456851192 -0.071825683117 -0.143651366234 9.648583412170
371 4879.532301000000 -0.006391586736 -0.004261057824 -0.006391586736 -0.067037299275 -0.148439735174 9.682102203369
372 4879.534307000000 -0.006391586736 -0.004261057824 -0.006391586736 -0.067037299275 -0.148439735174 9.682102203369
373 4879.536306000000 -0.005326322280 -0.002130528912 -0.005326322280 -0.100555956364 -0.153228119016 9.715620040894
374 4879.538305000000 0.000000000000 0.002130528912 -0.002130528912 -0.047883786261 -0.134074598551 9.773080825806
375 4879.540303000000 0.000000000000 0.002130528912 -0.003195793368 -0.033518649638 -0.158016502857 9.753927230835
376 4879.542303000000 -0.003195793368 0.002130528912 -0.002130528912 -0.028730273247 -0.186746776104 9.720408439636
377 4879.544301000000 -0.003195793368 -0.002130528912 -0.002130528912 -0.033518649638 -0.138862982392 9.725196838379
378 4879.546303000000 -0.006391586736 -0.004261057824 -0.004261057824 -0.043095409870 -0.172381639481 9.725196838379
379 4879.548304000000 -0.008522115648 -0.005326322280 -0.005326322280 -0.052672166377 -0.143651366234 9.768292427063
380 4879.550301000000 -0.007456851192 -0.007456851192 -0.004261057824 -0.081402435899 -0.158016502857 9.720408439636
381 4879.552302000000 -0.007456851192 -0.006391586736 -0.005326322280 -0.081402435899 -0.119709469378 9.672525405884
382 4879.554304000000 -0.007456851192 -0.004261057824 -0.006391586736 -0.071825683117 -0.177170008421 9.686890602112
383 4879.556302000000 -0.005326322280 -0.003195793368 -0.006391586736 -0.071825683117 -0.143651366234 9.648583412170
384 4879.558302000000 -0.004261057824 0.001065264456 -0.003195793368 -0.062248922884 -0.186746776104 9.773080825806
385 4879.560301000000 -0.002130528912 -0.000000000000 -0.006391586736 -0.033518649638 -0.167593255639 9.729985237122
386 4879.562299000000 -0.001065264456 0.002130528912 -0.006391586736 -0.043095409870 -0.177170008421 9.777869224548
387 4879.564300000000 -0.004261057824 -0.001065264456 -0.002130528912 0.000000000000 -0.177170008421 9.787446022034
388 4879.566298000000 -0.006391586736 -0.001065264456 -0.004261057824 -0.076614059508 -0.110132709146 9.792234420776
389 4879.568298000000 -0.008522115648 -0.005326322280 -0.006391586736 -0.062248922884 -0.153228119016 9.773080825806
390 4879.570299000000 -0.006391586736 -0.005326322280 -0.003195793368 -0.067037299275 -0.114921092987 9.753927230835
391 4879.572297000000 -0.007456851192 -0.008522115648 -0.003195793368 -0.071825683117 -0.071825683117 9.744350433350
392 4879.574297000000 -0.007456851192 -0.008522115648 -0.005326322280 -0.095767572522 -0.158016502857 9.595911026001
393 4879.576297000000 -0.005326322280 -0.002130528912 -0.005326322280 -0.081402435899 -0.143651366234 9.619853019714
394 4879.578296000000 -0.001065264456 -0.001065264456 -0.005326322280 -0.047883786261 -0.177170008421 9.696466445923
395 4879.580298000000 -0.001065264456 0.001065264456 -0.007456851192 -0.028730273247 -0.158016502857 9.677313804626
396 4879.582303000000 0.000000000000 -0.000000000000 -0.005326322280 -0.038307029754 -0.153228119016 9.701254844666
397 4879.584300000000 -0.001065264456 -0.000000000000 -0.007456851192 -0.043095409870 -0.172381639481 9.749138832092
398 4879.586299000000 -0.007456851192 -0.001065264456 -0.005326322280 -0.014365136623 -0.186746776104 9.753927230835
399 4879.588298000000 -0.005326322280 -0.005326322280 -0.008522115648 -0.043095409870 -0.148439735174 9.792234420776
400 4879.590302000000 -0.007456851192 -0.008522115648 -0.007456851192 -0.067037299275 -0.162804871798 9.734773635864
401 4879.592302000000 -0.007456851192 -0.009587380104 -0.002130528912 -0.047883786261 -0.148439735174 9.701254844666
402 4879.594299000000 -0.007456851192 -0.006391586736 -0.005326322280 -0.067037299275 -0.167593255639 9.696466445923
403 4879.596299000000 -0.006391586736 -0.005326322280 -0.005326322280 -0.090979196131 -0.191535145044 9.634218215942
404 4879.598299000000 -0.003195793368 -0.002130528912 -0.004261057824 -0.081402435899 -0.167593255639 9.682102203369
405 4879.600300000000 -0.001065264456 -0.001065264456 -0.004261057824 -0.062248922884 -0.148439735174 9.720408439636
406 4879.602300000000 -0.001065264456 -0.000000000000 -0.006391586736 0.009576757438 -0.172381639481 9.797022819519
407 4879.604297000000 -0.006391586736 0.001065264456 -0.006391586736 -0.057460546494 -0.158016502857 9.758715629578
408 4879.606299000000 -0.002130528912 0.001065264456 -0.007456851192 0.028730273247 -0.196323528886 9.777869224548
409 4879.608297000000 -0.005326322280 -0.003195793368 -0.007456851192 -0.023941893131 -0.162804871798 9.782657623291
410 4879.610296000000 -0.005326322280 -0.005326322280 -0.002130528912 -0.033518649638 -0.110132709146 9.729985237122
411 4879.612297000000 -0.009587380104 -0.005326322280 -0.002130528912 -0.100555956364 -0.110132709146 9.725196838379
412 4879.614298000000 -0.009587380104 -0.006391586736 -0.006391586736 -0.062248922884 -0.153228119016 9.682102203369
413 4879.616300000000 -0.007456851192 -0.003195793368 -0.006391586736 -0.119709469378 -0.138862982392 9.715620040894
414 4879.618300000000 -0.005326322280 -0.005326322280 -0.006391586736 -0.057460546494 -0.172381639481 9.720408439636
415 4879.620300000000 -0.003195793368 -0.002130528912 -0.008522115648 -0.090979196131 -0.172381639481 9.653371810913
416 4879.622299000000 -0.003195793368 0.001065264456 -0.006391586736 -0.062248922884 -0.181958392262 9.720408439636
417 4879.624300000000 -0.004261057824 0.001065264456 -0.005326322280 -0.038307029754 -0.177170008421 9.758715629578
418 4879.626301000000 -0.005326322280 0.001065264456 -0.005326322280 -0.038307029754 -0.158016502857 9.787446022034
419 4879.628300000000 -0.005326322280 -0.001065264456 -0.006391586736 -0.038307029754 -0.181958392262 9.777869224548
420 4879.630300000000 -0.005326322280 -0.005326322280 -0.004261057824 -0.033518649638 -0.158016502857 9.797022819519
421 4879.632301000000 -0.007456851192 -0.004261057824 -0.006391586736 -0.110132709146 -0.153228119016 9.758715629578
422 4879.634303000000 -0.008522115648 -0.004261057824 -0.003195793368 -0.090979196131 -0.148439735174 9.710831642151
423 4879.636300000000 -0.010652644560 -0.004261057824 -0.005326322280 -0.105344332755 -0.143651366234 9.610276222229
424 4879.638299000000 -0.008522115648 -0.003195793368 -0.006391586736 -0.119709469378 -0.153228119016 9.629429817200
425 4879.640306000000 -0.005326322280 -0.000000000000 -0.004261057824 -0.086190819740 -0.167593255639 9.624641418457
426 4879.642299000000 -0.001065264456 0.001065264456 -0.008522115648 -0.076614059508 -0.153228119016 9.734773635864
427 4879.644297000000 0.000000000000 0.002130528912 -0.006391586736 -0.014365136623 -0.124497845769 9.696466445923
428 4879.646297000000 -0.002130528912 0.001065264456 -0.004261057824 0.014365136623 -0.201111912727 9.763504028320
429 4879.648297000000 -0.004261057824 -0.002130528912 -0.006391586736 -0.047883786261 -0.177170008421 9.758715629578
430 4879.650298000000 -0.004261057824 -0.003195793368 -0.009587380104 -0.033518649638 -0.162804871798 9.782657623291
431 4879.652297000000 -0.003195793368 -0.003195793368 -0.006391586736 -0.023941893131 -0.143651366234 9.782657623291
432 4879.654298000000 -0.004261057824 -0.004261057824 -0.002130528912 -0.067037299275 -0.153228119016 9.797022819519
433 4879.656302000000 -0.006391586736 -0.004261057824 -0.002130528912 -0.057460546494 -0.124497845769 9.662948608398
434 4879.658300000000 -0.009587380104 -0.005326322280 -0.004261057824 -0.062248922884 -0.138862982392 9.691679000854
435 4879.660300000000 -0.005326322280 -0.003195793368 -0.006391586736 -0.057460546494 -0.138862982392 9.672525405884
436 4879.662302000000 0.000000000000 -0.001065264456 -0.006391586736 -0.047883786261 -0.162804871798 9.672525405884
437 4879.664300000000 -0.001065264456 -0.000000000000 -0.003195793368 -0.038307029754 -0.148439735174 9.706043243408
438 4879.666300000000 -0.004261057824 -0.000000000000 -0.005326322280 -0.033518649638 -0.172381639481 9.744350433350
439 4879.668298000000 -0.003195793368 -0.000000000000 -0.006391586736 -0.023941893131 -0.167593255639 9.753927230835
440 4879.670299000000 -0.003195793368 0.002130528912 -0.006391586736 0.004788378719 -0.153228119016 9.806599617004
441 4879.672299000000 -0.006391586736 -0.003195793368 -0.005326322280 -0.062248922884 -0.153228119016 9.854483604431
442 4879.674297000000 -0.007456851192 -0.007456851192 -0.003195793368 -0.023941893131 -0.158016502857 9.763504028320
443 4879.676300000000 -0.005326322280 -0.006391586736 -0.004261057824 -0.062248922884 -0.134074598551 9.667737007141
444 4879.678296000000 -0.007456851192 -0.005326322280 -0.004261057824 -0.081402435899 -0.186746776104 9.600699424744
445 4879.680297000000 -0.006391586736 -0.004261057824 -0.004261057824 -0.067037299275 -0.181958392262 9.615064620972
446 4879.682296000000 -0.005326322280 -0.002130528912 -0.006391586736 -0.043095409870 -0.191535145044 9.662948608398
447 4879.684301000000 -0.005326322280 0.002130528912 -0.005326322280 -0.057460546494 -0.143651366234 9.720408439636
448 4879.686302000000 -0.003195793368 0.004261057824 -0.005326322280 -0.038307029754 -0.114921092987 9.710831642151
449 4879.688299000000 -0.003195793368 0.004261057824 -0.005326322280 -0.038307029754 -0.114921092987 9.710831642151
450 4879.690299000000 -0.006391586736 -0.001065264456 -0.005326322280 -0.023941893131 -0.172381639481 9.773080825806
451 4879.692301000000 -0.007456851192 -0.002130528912 -0.006391586736 -0.028730273247 -0.181958392262 9.777869224548
452 4879.694300000000 -0.008522115648 -0.005326322280 -0.010652644560 -0.052672166377 -0.186746776104 9.777869224548
453 4879.696300000000 -0.007456851192 -0.005326322280 -0.007456851192 -0.057460546494 -0.129286229610 9.744350433350
454 4879.698301000000 -0.009587380104 -0.005326322280 -0.008522115648 -0.028730273247 -0.134074598551 9.720408439636
455 4879.700300000000 -0.009587380104 -0.004261057824 -0.004261057824 -0.110132709146 -0.148439735174 9.629429817200
456 4879.702299000000 -0.006391586736 -0.001065264456 -0.005326322280 -0.067037299275 -0.143651366234 9.643795013428
457 4879.704301000000 -0.004261057824 -0.002130528912 -0.005326322280 -0.043095409870 -0.162804871798 9.710831642151
458 4879.706300000000 0.003195793368 0.003195793368 -0.006391586736 -0.052672166377 -0.196323528886 9.710831642151
459 4879.708306000000 0.002130528912 0.003195793368 -0.008522115648 0.000000000000 -0.158016502857 9.686890602112
460 4879.710311000000 0.002130528912 0.003195793368 -0.008522115648 0.000000000000 -0.158016502857 9.686890602112
461 4879.712303000000 -0.001065264456 -0.000000000000 -0.004261057824 -0.038307029754 -0.138862982392 9.806599617004
462 4879.714300000000 -0.005326322280 -0.003195793368 -0.002130528912 -0.043095409870 -0.153228119016 9.749138832092
463 4879.716301000000 -0.006391586736 -0.005326322280 -0.006391586736 -0.038307029754 -0.153228119016 9.758715629578
464 4879.718299000000 -0.007456851192 -0.007456851192 -0.005326322280 -0.095767572522 -0.162804871798 9.677313804626
465 4879.720302000000 -0.008522115648 -0.005326322280 -0.007456851192 -0.105344332755 -0.153228119016 9.672525405884
466 4879.722303000000 -0.007456851192 -0.003195793368 -0.006391586736 -0.062248922884 -0.153228119016 9.595911026001
467 4879.724303000000 -0.005326322280 -0.001065264456 -0.000000000000 -0.090979196131 -0.153228119016 9.634218215942
468 4879.726304000000 -0.002130528912 -0.000000000000 -0.003195793368 -0.086190819740 -0.181958392262 9.682102203369
469 4879.728302000000 0.000000000000 0.001065264456 -0.004261057824 -0.004788378719 -0.186746776104 9.739562034607
470 4879.730302000000 -0.001065264456 -0.000000000000 -0.003195793368 -0.023941893131 -0.186746776104 9.773080825806
471 4879.732302000000 -0.002130528912 0.001065264456 -0.004261057824 -0.023941893131 -0.158016502857 9.816176414490
472 4879.734301000000 -0.002130528912 -0.002130528912 -0.003195793368 -0.028730273247 -0.177170008421 9.734773635864
473 4879.736307000000 -0.006391586736 -0.005326322280 -0.005326322280 -0.062248922884 -0.114921092987 9.816176414490
474 4879.738304000000 -0.007456851192 -0.006391586736 -0.006391586736 -0.033518649638 -0.143651366234 9.749138832092
475 4879.740301000000 -0.010652644560 -0.007456851192 -0.005326322280 -0.081402435899 -0.148439735174 9.710831642151
476 4879.742298000000 -0.009587380104 -0.004261057824 -0.004261057824 -0.090979196131 -0.158016502857 9.629429817200
477 4879.744299000000 -0.005326322280 -0.001065264456 -0.004261057824 -0.047883786261 -0.148439735174 9.653371810913
478 4879.746305000000 -0.003195793368 0.001065264456 -0.005326322280 -0.043095409870 -0.181958392262 9.662948608398
479 4879.748299000000 -0.004261057824 0.002130528912 -0.004261057824 -0.052672166377 -0.196323528886 9.677313804626
480 4879.750297000000 -0.001065264456 0.002130528912 -0.004261057824 -0.038307029754 -0.196323528886 9.787446022034
481 4879.752299000000 -0.002130528912 -0.000000000000 -0.004261057824 -0.019153514877 -0.177170008421 9.715620040894
482 4879.754300000000 -0.007456851192 -0.002130528912 -0.008522115648 -0.033518649638 -0.138862982392 9.792234420776
483 4879.756299000000 -0.006391586736 -0.001065264456 -0.005326322280 -0.028730273247 -0.148439735174 9.777869224548
484 4879.758300000000 -0.007456851192 -0.003195793368 -0.006391586736 -0.043095409870 -0.172381639481 9.744350433350
485 4879.760298000000 -0.008522115648 -0.006391586736 -0.006391586736 -0.047883786261 -0.167593255639 9.725196838379
486 4879.762303000000 -0.004261057824 -0.004261057824 -0.003195793368 -0.100555956364 -0.138862982392 9.715620040894
487 4879.764301000000 -0.006391586736 -0.002130528912 -0.005326322280 -0.090979196131 -0.162804871798 9.667737007141
488 4879.766299000000 -0.004261057824 -0.002130528912 -0.004261057824 -0.047883786261 -0.167593255639 9.629429817200
489 4879.768302000000 -0.003195793368 -0.001065264456 -0.002130528912 -0.028730273247 -0.172381639481 9.749138832092
490 4879.770300000000 -0.003195793368 -0.001065264456 -0.002130528912 -0.028730273247 -0.172381639481 9.749138832092
491 4879.772299000000 -0.002130528912 0.001065264456 -0.004261057824 -0.004788378719 -0.220265418291 9.734773635864
492 4879.774299000000 -0.005326322280 0.001065264456 -0.002130528912 -0.023941893131 -0.201111912727 9.768292427063
493 4879.776298000000 -0.005326322280 -0.003195793368 -0.005326322280 -0.043095409870 -0.134074598551 9.792234420776
494 4879.778296000000 -0.008522115648 -0.005326322280 -0.005326322280 -0.052672166377 -0.114921092987 9.753927230835
495 4879.780297000000 -0.009587380104 -0.005326322280 -0.005326322280 -0.071825683117 -0.153228119016 9.787446022034
496 4879.782296000000 -0.007456851192 -0.007456851192 -0.004261057824 -0.095767572522 -0.119709469378 9.677313804626
497 4879.784300000000 -0.007456851192 -0.007456851192 -0.004261057824 -0.095767572522 -0.119709469378 9.677313804626
498 4879.786304000000 -0.007456851192 -0.000000000000 -0.008522115648 -0.067037299275 -0.191535145044 9.672525405884
499 4879.788302000000 -0.004261057824 -0.000000000000 -0.004261057824 -0.081402435899 -0.158016502857 9.629429817200
500 4879.790299000000 -0.003195793368 -0.001065264456 -0.003195793368 -0.038307029754 -0.167593255639 9.682102203369
501 4879.792301000000 -0.002130528912 -0.001065264456 -0.007456851192 -0.038307029754 -0.172381639481 9.753927230835
502 4879.794300000000 -0.001065264456 -0.000000000000 -0.007456851192 0.014365136623 -0.172381639481 9.753927230835
503 4879.796301000000 -0.005326322280 -0.004261057824 -0.006391586736 -0.033518649638 -0.124497845769 9.816176414490
504 4879.798302000000 -0.005326322280 -0.003195793368 -0.005326322280 -0.052672166377 -0.167593255639 9.768292427063
505 4879.800301000000 -0.005326322280 -0.006391586736 -0.004261057824 -0.019153514877 -0.143651366234 9.710831642151
506 4879.802299000000 -0.006391586736 -0.006391586736 -0.004261057824 -0.067037299275 -0.129286229610 9.691679000854
507 4879.804299000000 -0.006391586736 -0.005326322280 -0.003195793368 -0.081402435899 -0.129286229610 9.701254844666
508 4879.806299000000 -0.005326322280 -0.004261057824 -0.003195793368 -0.095767572522 -0.134074598551 9.691679000854
509 4879.808297000000 -0.006391586736 -0.002130528912 -0.003195793368 -0.081402435899 -0.172381639481 9.639006614685
510 4879.810297000000 -0.003195793368 0.001065264456 -0.004261057824 -0.047883786261 -0.158016502857 9.729985237122
511 4879.812297000000 -0.002130528912 0.001065264456 -0.006391586736 -0.028730273247 -0.148439735174 9.701254844666
512 4879.814294000000 -0.003195793368 0.002130528912 -0.006391586736 -0.019153514877 -0.167593255639 9.739562034607
513 4879.816296000000 -0.004261057824 -0.000000000000 -0.006391586736 -0.004788378719 -0.143651366234 9.797022819519
514 4879.818305000000 -0.004261057824 -0.000000000000 -0.007456851192 -0.043095409870 -0.148439735174 9.835330009460
515 4879.820300000000 -0.004261057824 -0.000000000000 -0.007456851192 -0.043095409870 -0.148439735174 9.835330009460
516 4879.822300000000 -0.006391586736 -0.007456851192 -0.004261057824 -0.052672166377 -0.119709469378 9.749138832092
517 4879.824299000000 -0.006391586736 -0.007456851192 -0.004261057824 -0.052672166377 -0.119709469378 9.749138832092
518 4879.826300000000 -0.005326322280 -0.002130528912 -0.003195793368 -0.090979196131 -0.129286229610 9.610276222229
519 4879.828301000000 -0.004261057824 -0.004261057824 -0.004261057824 -0.076614059508 -0.134074598551 9.658160209656
520 4879.830299000000 -0.006391586736 -0.001065264456 -0.008522115648 -0.057460546494 -0.191535145044 9.701254844666
521 4879.832301000000 -0.004261057824 -0.000000000000 -0.006391586736 -0.086190819740 -0.186746776104 9.729985237122
522 4879.834300000000 -0.001065264456 0.002130528912 -0.005326322280 -0.019153514877 -0.196323528886 9.753927230835
523 4879.836298000000 -0.006391586736 -0.001065264456 -0.002130528912 -0.038307029754 -0.205900281668 9.811388015747
524 4879.838302000000 -0.006391586736 -0.002130528912 -0.005326322280 -0.033518649638 -0.172381639481 9.792234420776
525 4879.840299000000 -0.004261057824 -0.002130528912 -0.007456851192 -0.052672166377 -0.134074598551 9.753927230835
526 4879.842297000000 -0.004261057824 -0.002130528912 -0.007456851192 -0.052672166377 -0.134074598551 9.753927230835
527 4879.844297000000 -0.009587380104 -0.007456851192 -0.001065264456 -0.062248922884 -0.158016502857 9.715620040894
528 4879.846298000000 -0.007456851192 -0.006391586736 -0.004261057824 -0.038307029754 -0.124497845769 9.677313804626
529 4879.848297000000 -0.004261057824 -0.004261057824 -0.003195793368 -0.071825683117 -0.158016502857 9.648583412170
530 4879.850298000000 -0.004261057824 -0.004261057824 -0.003195793368 -0.071825683117 -0.158016502857 9.648583412170
531 4879.852300000000 -0.004261057824 0.001065264456 -0.004261057824 -0.057460546494 -0.181958392262 9.739562034607
532 4879.854305000000 -0.002130528912 -0.000000000000 -0.003195793368 -0.019153514877 -0.201111912727 9.753927230835
533 4879.856299000000 -0.005326322280 0.001065264456 -0.006391586736 -0.047883786261 -0.158016502857 9.749138832092
534 4879.858299000000 -0.002130528912 -0.000000000000 -0.003195793368 -0.033518649638 -0.191535145044 9.806599617004
535 4879.860300000000 -0.004261057824 -0.002130528912 -0.004261057824 -0.009576757438 -0.153228119016 9.792234420776
536 4879.862300000000 -0.006391586736 -0.006391586736 -0.004261057824 -0.038307029754 -0.172381639481 9.773080825806
537 4879.864300000000 -0.008522115648 -0.008522115648 -0.003195793368 -0.047883786261 -0.148439735174 9.706043243408
538 4879.866302000000 -0.007456851192 -0.006391586736 -0.005326322280 -0.081402435899 -0.138862982392 9.701254844666
539 4879.868298000000 -0.004261057824 -0.000000000000 -0.003195793368 -0.086190819740 -0.119709469378 9.691679000854
540 4879.870300000000 -0.004261057824 -0.003195793368 -0.004261057824 -0.100555956364 -0.158016502857 9.639006614685
541 4879.872299000000 -0.003195793368 -0.000000000000 -0.004261057824 -0.052672166377 -0.172381639481 9.648583412170
542 4879.874296000000 -0.001065264456 -0.000000000000 -0.007456851192 -0.052672166377 -0.181958392262 9.710831642151
543 4879.876297000000 -0.004261057824 0.001065264456 -0.003195793368 -0.038307029754 -0.158016502857 9.816176414490
544 4879.878303000000 -0.005326322280 -0.000000000000 -0.003195793368 -0.009576757438 -0.134074598551 9.758715629578
545 4879.880303000000 0.001065264456 -0.003195793368 -0.003195793368 -0.028730273247 -0.158016502857 9.729985237122
546 4879.882298000000 -0.002130528912 -0.002130528912 -0.006391586736 -0.028730273247 -0.153228119016 9.744350433350
547 4879.884299000000 -0.005326322280 -0.005326322280 -0.002130528912 -0.043095409870 -0.162804871798 9.734773635864
548 4879.886303000000 -0.006391586736 -0.007456851192 -0.000000000000 -0.086190819740 -0.143651366234 9.734773635864
549 4879.888314000000 -0.007456851192 -0.004261057824 -0.000000000000 -0.057460546494 -0.181958392262 9.643795013428
550 4879.890309000000 -0.005326322280 -0.002130528912 -0.003195793368 -0.086190819740 -0.153228119016 9.610276222229
551 4879.892302000000 -0.006391586736 -0.001065264456 -0.004261057824 -0.067037299275 -0.172381639481 9.667737007141
552 4879.894305000000 -0.002130528912 -0.000000000000 -0.001065264456 -0.038307029754 -0.172381639481 9.706043243408
553 4879.896304000000 -0.003195793368 0.003195793368 -0.005326322280 -0.019153514877 -0.172381639481 9.706043243408
554 4879.898302000000 -0.006391586736 0.002130528912 -0.007456851192 -0.014365136623 -0.172381639481 9.801811218262
555 4879.900303000000 -0.005326322280 -0.000000000000 -0.007456851192 -0.009576757438 -0.196323528886 9.763504028320
556 4879.902301000000 -0.006391586736 -0.001065264456 -0.007456851192 -0.004788378719 -0.153228119016 9.763504028320
557 4879.904299000000 -0.006391586736 -0.006391586736 -0.007456851192 -0.038307029754 -0.134074598551 9.777869224548
558 4879.906298000000 -0.008522115648 -0.004261057824 -0.007456851192 -0.038307029754 -0.158016502857 9.696466445923
559 4879.908298000000 -0.007456851192 -0.005326322280 -0.004261057824 -0.090979196131 -0.162804871798 9.682102203369
560 4879.910299000000 -0.005326322280 -0.005326322280 -0.003195793368 -0.028730273247 -0.138862982392 9.591122627258
561 4879.912299000000 -0.003195793368 -0.003195793368 -0.004261057824 -0.047883786261 -0.129286229610 9.643795013428
562 4879.914298000000 0.000000000000 -0.003195793368 -0.004261057824 -0.090979196131 -0.124497845769 9.691679000854
563 4879.916301000000 -0.001065264456 -0.001065264456 -0.006391586736 -0.052672166377 -0.167593255639 9.710831642151
564 4879.918301000000 -0.003195793368 0.001065264456 -0.005326322280 -0.038307029754 -0.181958392262 9.725196838379
565 4879.920300000000 -0.004261057824 -0.000000000000 -0.002130528912 -0.019153514877 -0.172381639481 9.777869224548
566 4879.922299000000 -0.001065264456 -0.002130528912 -0.006391586736 0.004788378719 -0.119709469378 9.734773635864
567 4879.924305000000 -0.002130528912 -0.003195793368 -0.005326322280 -0.038307029754 -0.143651366234 9.840118408203
568 4879.926301000000 -0.005326322280 -0.006391586736 -0.006391586736 -0.062248922884 -0.114921092987 9.744350433350
569 4879.928298000000 -0.009587380104 -0.005326322280 -0.003195793368 -0.047883786261 -0.162804871798 9.749138832092
570 4879.930297000000 -0.009587380104 -0.006391586736 -0.005326322280 -0.062248922884 -0.162804871798 9.672525405884
571 4879.932299000000 -0.003195793368 -0.005326322280 -0.008522115648 -0.033518649638 -0.162804871798 9.667737007141
572 4879.934305000000 -0.004261057824 -0.001065264456 -0.007456851192 -0.047883786261 -0.167593255639 9.634218215942
573 4879.936300000000 -0.002130528912 -0.002130528912 -0.006391586736 -0.076614059508 -0.177170008421 9.653371810913
574 4879.938297000000 -0.003195793368 0.002130528912 -0.005326322280 0.009576757438 -0.162804871798 9.773080825806
575 4879.940304000000 -0.003195793368 -0.000000000000 -0.007456851192 0.019153514877 -0.143651366234 9.777869224548
576 4879.942300000000 -0.006391586736 -0.001065264456 -0.005326322280 -0.014365136623 -0.138862982392 9.758715629578
577 4879.944298000000 -0.007456851192 -0.004261057824 -0.003195793368 -0.086190819740 -0.134074598551 9.763504028320
578 4879.946298000000 -0.005326322280 -0.004261057824 -0.005326322280 -0.047883786261 -0.153228119016 9.739562034607
579 4879.948297000000 -0.006391586736 -0.006391586736 -0.007456851192 -0.090979196131 -0.138862982392 9.696466445923
580 4879.950297000000 -0.008522115648 -0.006391586736 -0.005326322280 -0.081402435899 -0.119709469378 9.672525405884
581 4879.952303000000 -0.006391586736 -0.004261057824 -0.001065264456 -0.086190819740 -0.090979196131 9.653371810913
582 4879.954300000000 -0.005326322280 -0.003195793368 -0.003195793368 -0.057460546494 -0.114921092987 9.715620040894
583 4879.956300000000 -0.002130528912 -0.002130528912 -0.004261057824 0.004788378719 -0.162804871798 9.682102203369
584 4879.958300000000 -0.004261057824 -0.000000000000 -0.002130528912 -0.043095409870 -0.172381639481 9.701254844666
585 4879.960299000000 -0.001065264456 0.001065264456 -0.004261057824 -0.043095409870 -0.177170008421 9.753927230835
586 4879.962303000000 -0.002130528912 0.001065264456 -0.006391586736 -0.043095409870 -0.138862982392 9.777869224548
587 4879.964298000000 -0.004261057824 -0.003195793368 -0.003195793368 0.014365136623 -0.172381639481 9.797022819519
588 4879.966301000000 -0.003195793368 -0.003195793368 -0.004261057824 -0.033518649638 -0.153228119016 9.768292427063
589 4879.968301000000 -0.005326322280 -0.005326322280 -0.005326322280 -0.086190819740 -0.162804871798 9.734773635864
590 4879.970300000000 -0.007456851192 -0.004261057824 -0.002130528912 -0.071825683117 -0.105344332755 9.715620040894
591 4879.972299000000 -0.006391586736 -0.004261057824 -0.003195793368 -0.086190819740 -0.143651366234 9.691679000854
592 4879.974300000000 -0.005326322280 -0.004261057824 -0.006391586736 -0.081402435899 -0.158016502857 9.667737007141
593 4879.976299000000 -0.002130528912 -0.002130528912 -0.004261057824 -0.090979196131 -0.148439735174 9.696466445923
594 4879.978299000000 -0.005326322280 -0.001065264456 -0.002130528912 -0.043095409870 -0.162804871798 9.682102203369
595 4879.980298000000 -0.004261057824 0.001065264456 -0.004261057824 -0.081402435899 -0.177170008421 9.753927230835
596 4879.982297000000 -0.003195793368 0.001065264456 -0.006391586736 -0.062248922884 -0.162804871798 9.773080825806
597 4879.984300000000 -0.002130528912 -0.005326322280 -0.008522115648 0.009576757438 -0.143651366234 9.763504028320
598 4879.986297000000 -0.002130528912 -0.005326322280 -0.008522115648 0.009576757438 -0.143651366234 9.763504028320
599 4879.988297000000 -0.008522115648 -0.004261057824 -0.006391586736 -0.047883786261 -0.110132709146 9.672525405884
600 4879.990297000000 -0.008522115648 -0.008522115648 -0.002130528912 -0.095767572522 -0.162804871798 9.753927230835
601 4879.992303000000 -0.006391586736 -0.007456851192 -0.001065264456 -0.105344332755 -0.186746776104 9.667737007141
602 4879.994299000000 -0.008522115648 -0.006391586736 -0.002130528912 -0.023941893131 -0.153228119016 9.691679000854
603 4879.996303000000 -0.003195793368 -0.002130528912 -0.006391586736 -0.043095409870 -0.191535145044 9.701254844666
604 4879.998298000000 0.000000000000 0.001065264456 -0.006391586736 -0.076614059508 -0.201111912727 9.715620040894
605 4880.000299000000 0.000000000000 0.001065264456 -0.006391586736 -0.076614059508 -0.201111912727 9.715620040894
606 4880.002301000000 -0.003195793368 0.001065264456 -0.005326322280 -0.028730273247 -0.196323528886 9.763504028320
607 4880.004300000000 -0.005326322280 0.001065264456 -0.004261057824 -0.019153514877 -0.167593255639 9.749138832092
608 4880.006300000000 -0.005326322280 -0.003195793368 -0.003195793368 -0.028730273247 -0.162804871798 9.749138832092
609 4880.008299000000 -0.005326322280 -0.004261057824 -0.002130528912 -0.047883786261 -0.143651366234 9.763504028320
610 4880.010300000000 -0.011717909016 -0.005326322280 -0.002130528912 -0.071825683117 -0.134074598551 9.753927230835
611 4880.012301000000 -0.006391586736 -0.004261057824 -0.005326322280 -0.100555956364 -0.138862982392 9.686890602112
612 4880.014301000000 -0.008522115648 -0.003195793368 -0.008522115648 -0.086190819740 -0.158016502857 9.672525405884
613 4880.016300000000 -0.005326322280 -0.004261057824 -0.008522115648 -0.086190819740 -0.172381639481 9.653371810913
614 4880.018301000000 -0.007456851192 -0.000000000000 -0.002130528912 -0.081402435899 -0.134074598551 9.710831642151
615 4880.020298000000 -0.003195793368 -0.000000000000 -0.005326322280 -0.028730273247 -0.167593255639 9.710831642151
616 4880.022300000000 -0.002130528912 0.004261057824 -0.007456851192 -0.038307029754 -0.172381639481 9.691679000854
617 4880.024301000000 -0.004261057824 0.002130528912 -0.004261057824 -0.062248922884 -0.148439735174 9.777869224548
618 4880.026296000000 -0.003195793368 -0.001065264456 -0.005326322280 -0.038307029754 -0.167593255639 9.753927230835
619 4880.028298000000 -0.005326322280 -0.004261057824 -0.005326322280 -0.057460546494 -0.167593255639 9.768292427063
620 4880.030297000000 -0.006391586736 -0.006391586736 -0.006391586736 -0.038307029754 -0.134074598551 9.720408439636
621 4880.032300000000 -0.007456851192 -0.007456851192 -0.005326322280 -0.071825683117 -0.134074598551 9.739562034607
622 4880.034296000000 -0.004261057824 -0.007456851192 -0.004261057824 -0.100555956364 -0.162804871798 9.672525405884
623 4880.036299000000 -0.006391586736 -0.002130528912 -0.006391586736 -0.062248922884 -0.172381639481 9.734773635864
624 4880.038300000000 0.000000000000 0.001065264456 -0.004261057824 -0.086190819740 -0.162804871798 9.725196838379
625 4880.040299000000 -0.002130528912 -0.002130528912 -0.004261057824 -0.062248922884 -0.138862982392 9.715620040894
626 4880.042302000000 -0.004261057824 -0.001065264456 -0.005326322280 -0.052672166377 -0.181958392262 9.677313804626
627 4880.044302000000 -0.003195793368 -0.001065264456 -0.007456851192 -0.038307029754 -0.191535145044 9.734773635864
628 4880.046300000000 -0.003195793368 -0.005326322280 -0.007456851192 -0.028730273247 -0.134074598551 9.777869224548
629 4880.048299000000 -0.005326322280 -0.001065264456 -0.003195793368 -0.047883786261 -0.134074598551 9.806599617004
630 4880.050301000000 -0.010652644560 -0.003195793368 -0.008522115648 -0.052672166377 -0.100555956364 9.758715629578
631 4880.052307000000 -0.007456851192 -0.006391586736 -0.007456851192 -0.057460546494 -0.177170008421 9.725196838379
632 4880.054304000000 -0.006391586736 -0.004261057824 -0.004261057824 -0.071825683117 -0.162804871798 9.682102203369
633 4880.056301000000 -0.007456851192 -0.004261057824 -0.005326322280 -0.114921092987 -0.153228119016 9.682102203369
634 4880.058299000000 -0.004261057824 -0.002130528912 -0.004261057824 -0.038307029754 -0.143651366234 9.696466445923
635 4880.060298000000 -0.003195793368 -0.001065264456 -0.002130528912 -0.052672166377 -0.138862982392 9.710831642151
636 4880.062298000000 -0.002130528912 -0.000000000000 -0.003195793368 -0.052672166377 -0.167593255639 9.662948608398
637 4880.064299000000 0.000000000000 0.001065264456 -0.004261057824 -0.023941893131 -0.177170008421 9.739562034607
638 4880.066309000000 0.000000000000 -0.000000000000 -0.007456851192 -0.043095409870 -0.153228119016 9.753927230835
639 4880.068306000000 -0.005326322280 -0.003195793368 -0.007456851192 -0.052672166377 -0.119709469378 9.773080825806
640 4880.070302000000 -0.007456851192 -0.001065264456 -0.004261057824 -0.043095409870 -0.124497845769 9.773080825806
641 4880.072303000000 -0.010652644560 -0.002130528912 -0.008522115648 -0.043095409870 -0.148439735174 9.739562034607
642 4880.074302000000 -0.009587380104 -0.006391586736 -0.004261057824 -0.052672166377 -0.162804871798 9.653371810913
643 4880.076301000000 -0.006391586736 -0.008522115648 -0.002130528912 -0.095767572522 -0.148439735174 9.701254844666
644 4880.078302000000 -0.007456851192 -0.004261057824 -0.001065264456 -0.043095409870 -0.119709469378 9.648583412170
645 4880.080299000000 -0.007456851192 0.001065264456 -0.003195793368 -0.081402435899 -0.162804871798 9.677313804626
646 4880.082300000000 -0.006391586736 0.001065264456 -0.009587380104 -0.071825683117 -0.191535145044 9.729985237122
647 4880.084298000000 -0.002130528912 -0.000000000000 -0.005326322280 -0.043095409870 -0.181958392262 9.729985237122
648 4880.086299000000 -0.001065264456 0.001065264456 -0.005326322280 0.009576757438 -0.196323528886 9.720408439636
649 4880.088297000000 -0.002130528912 -0.001065264456 -0.006391586736 0.009576757438 -0.143651366234 9.792234420776
650 4880.090298000000 -0.003195793368 -0.005326322280 -0.003195793368 -0.047883786261 -0.172381639481 9.816176414490
651 4880.092297000000 -0.007456851192 -0.004261057824 -0.005326322280 -0.014365136623 -0.162804871798 9.706043243408
652 4880.094314000000 -0.009587380104 -0.007456851192 -0.007456851192 -0.038307029754 -0.138862982392 9.729985237122
653 4880.096299000000 -0.007456851192 -0.006391586736 -0.005326322280 -0.081402435899 -0.158016502857 9.691679000854
654 4880.098308000000 -0.005326322280 -0.006391586736 -0.002130528912 -0.067037299275 -0.143651366234 9.643795013428
655 4880.100300000000 -0.004261057824 -0.004261057824 -0.003195793368 -0.047883786261 -0.181958392262 9.701254844666
656 4880.102304000000 -0.004261057824 0.001065264456 -0.005326322280 -0.057460546494 -0.186746776104 9.610276222229
657 4880.104298000000 -0.005326322280 0.001065264456 -0.004261057824 -0.043095409870 -0.196323528886 9.696466445923
658 4880.106297000000 -0.001065264456 0.001065264456 -0.003195793368 -0.033518649638 -0.196323528886 9.787446022034
659 4880.108306000000 -0.004261057824 0.003195793368 -0.005326322280 -0.019153514877 -0.191535145044 9.806599617004
660 4880.110301000000 -0.004261057824 -0.000000000000 -0.005326322280 -0.009576757438 -0.153228119016 9.792234420776
661 4880.112300000000 -0.008522115648 -0.001065264456 -0.003195793368 0.004788378719 -0.172381639481 9.782657623291
662 4880.114298000000 -0.007456851192 -0.005326322280 -0.007456851192 -0.076614059508 -0.143651366234 9.739562034607
663 4880.116298000000 -0.008522115648 -0.009587380104 -0.002130528912 -0.086190819740 -0.143651366234 9.729985237122
664 4880.118297000000 -0.004261057824 -0.006391586736 -0.003195793368 -0.067037299275 -0.143651366234 9.686890602112
665 4880.120297000000 -0.006391586736 -0.005326322280 -0.005326322280 -0.038307029754 -0.153228119016 9.658160209656
666 4880.122297000000 -0.003195793368 -0.001065264456 -0.007456851192 -0.052672166377 -0.177170008421 9.667737007141
667 4880.124305000000 -0.004261057824 0.001065264456 -0.007456851192 -0.033518649638 -0.186746776104 9.758715629578
668 4880.126301000000 -0.001065264456 -0.001065264456 -0.005326322280 -0.023941893131 -0.201111912727 9.749138832092
669 4880.128300000000 -0.004261057824 -0.001065264456 -0.006391586736 -0.028730273247 -0.181958392262 9.749138832092
670 4880.130299000000 0.000000000000 -0.000000000000 -0.006391586736 -0.019153514877 -0.158016502857 9.734773635864
671 4880.132300000000 -0.005326322280 -0.002130528912 -0.000000000000 -0.004788378719 -0.201111912727 9.758715629578
672 4880.134298000000 -0.006391586736 -0.009587380104 -0.003195793368 -0.062248922884 -0.143651366234 9.758715629578
673 4880.136299000000 -0.007456851192 -0.007456851192 -0.003195793368 -0.081402435899 -0.105344332755 9.758715629578
674 4880.138302000000 -0.007456851192 -0.007456851192 -0.003195793368 -0.100555956364 -0.143651366234 9.662948608398
675 4880.140304000000 -0.005326322280 -0.005326322280 -0.002130528912 -0.062248922884 -0.124497845769 9.682102203369
676 4880.142300000000 -0.005326322280 -0.001065264456 -0.003195793368 -0.062248922884 -0.148439735174 9.667737007141
677 4880.144297000000 -0.008522115648 -0.000000000000 -0.005326322280 -0.076614059508 -0.148439735174 9.672525405884
678 4880.146297000000 -0.003195793368 0.001065264456 -0.005326322280 -0.038307029754 -0.177170008421 9.672525405884
679 4880.148297000000 -0.003195793368 0.002130528912 -0.004261057824 -0.057460546494 -0.177170008421 9.816176414490
680 4880.150301000000 -0.004261057824 0.002130528912 -0.002130528912 -0.028730273247 -0.172381639481 9.744350433350
681 4880.152297000000 -0.005326322280 -0.003195793368 -0.006391586736 -0.019153514877 -0.172381639481 9.749138832092
682 4880.154299000000 -0.007456851192 -0.005326322280 -0.008522115648 -0.043095409870 -0.119709469378 9.749138832092
683 4880.156300000000 -0.009587380104 -0.008522115648 -0.005326322280 -0.047883786261 -0.110132709146 9.744350433350
684 4880.158301000000 -0.008522115648 -0.006391586736 -0.001065264456 -0.086190819740 -0.162804871798 9.672525405884
685 4880.160300000000 -0.007456851192 -0.004261057824 -0.004261057824 -0.043095409870 -0.114921092987 9.662948608398
686 4880.162300000000 -0.006391586736 -0.002130528912 -0.005326322280 -0.062248922884 -0.167593255639 9.629429817200
687 4880.164301000000 -0.007456851192 -0.002130528912 -0.004261057824 -0.076614059508 -0.186746776104 9.624641418457
688 4880.166300000000 -0.003195793368 -0.002130528912 -0.004261057824 -0.033518649638 -0.181958392262 9.672525405884
689 4880.168300000000 0.000000000000 -0.001065264456 -0.005326322280 0.014365136623 -0.148439735174 9.753927230835
690 4880.170300000000 0.001065264456 0.003195793368 -0.006391586736 -0.023941893131 -0.210688665509 9.744350433350
691 4880.172298000000 -0.002130528912 -0.000000000000 -0.007456851192 -0.033518649638 -0.186746776104 9.773080825806
692 4880.174303000000 -0.006391586736 -0.004261057824 -0.005326322280 -0.014365136623 -0.114921092987 9.725196838379
693 4880.176300000000 -0.007456851192 -0.003195793368 -0.003195793368 -0.028730273247 -0.124497845769 9.758715629578
694 4880.178297000000 -0.006391586736 -0.005326322280 -0.006391586736 -0.023941893131 -0.114921092987 9.734773635864
695 4880.180297000000 -0.008522115648 -0.005326322280 -0.005326322280 -0.062248922884 -0.129286229610 9.662948608398
696 4880.182296000000 -0.005326322280 -0.004261057824 -0.005326322280 -0.038307029754 -0.124497845769 9.643795013428
697 4880.184296000000 -0.006391586736 -0.003195793368 -0.002130528912 -0.081402435899 -0.162804871798 9.658160209656
698 4880.186297000000 -0.002130528912 -0.002130528912 -0.005326322280 -0.047883786261 -0.162804871798 9.595911026001
699 4880.188296000000 -0.003195793368 -0.000000000000 -0.005326322280 0.009576757438 -0.186746776104 9.658160209656
700 4880.190298000000 -0.002130528912 -0.000000000000 -0.005326322280 -0.028730273247 -0.181958392262 9.753927230835
701 4880.192296000000 -0.003195793368 -0.002130528912 -0.005326322280 -0.019153514877 -0.177170008421 9.729985237122
702 4880.194298000000 -0.003195793368 -0.004261057824 -0.006391586736 -0.038307029754 -0.148439735174 9.782657623291
703 4880.196298000000 -0.005326322280 -0.004261057824 -0.004261057824 -0.028730273247 -0.153228119016 9.725196838379
704 4880.198300000000 -0.008522115648 -0.005326322280 -0.003195793368 -0.067037299275 -0.167593255639 9.710831642151
705 4880.200306000000 -0.009587380104 -0.006391586736 -0.002130528912 -0.081402435899 -0.138862982392 9.672525405884
706 4880.202301000000 -0.009587380104 -0.004261057824 -0.002130528912 -0.114921092987 -0.153228119016 9.648583412170
707 4880.204300000000 -0.009587380104 -0.002130528912 -0.004261057824 -0.052672166377 -0.167593255639 9.615064620972
708 4880.206298000000 -0.003195793368 -0.001065264456 -0.005326322280 -0.028730273247 -0.153228119016 9.648583412170
709 4880.208302000000 -0.001065264456 -0.002130528912 -0.006391586736 -0.028730273247 -0.177170008421 9.715620040894
710 4880.210302000000 -0.001065264456 -0.000000000000 -0.007456851192 -0.023941893131 -0.172381639481 9.696466445923
711 4880.212299000000 -0.005326322280 0.001065264456 -0.007456851192 -0.028730273247 -0.167593255639 9.739562034607
712 4880.214300000000 -0.004261057824 -0.000000000000 -0.002130528912 -0.019153514877 -0.162804871798 9.777869224548
713 4880.216302000000 -0.006391586736 -0.000000000000 -0.004261057824 -0.009576757438 -0.191535145044 9.816176414490
714 4880.218300000000 -0.008522115648 -0.004261057824 -0.001065264456 -0.076614059508 -0.134074598551 9.782657623291
715 4880.220300000000 -0.010652644560 -0.007456851192 -0.004261057824 -0.057460546494 -0.158016502857 9.739562034607
716 4880.222297000000 -0.009587380104 -0.007456851192 -0.007456851192 -0.057460546494 -0.167593255639 9.686890602112
717 4880.224318000000 -0.007456851192 -0.005326322280 -0.006391586736 -0.090979196131 -0.167593255639 9.672525405884
718 4880.226307000000 -0.004261057824 -0.001065264456 -0.005326322280 -0.047883786261 -0.148439735174 9.677313804626
719 4880.228303000000 -0.002130528912 -0.000000000000 -0.004261057824 -0.071825683117 -0.186746776104 9.792234420776
720 4880.230299000000 -0.002130528912 -0.000000000000 -0.004261057824 -0.071825683117 -0.186746776104 9.792234420776
721 4880.232300000000 -0.003195793368 -0.001065264456 -0.005326322280 -0.004788378719 -0.143651366234 9.672525405884
722 4880.234299000000 -0.004261057824 -0.000000000000 -0.005326322280 -0.047883786261 -0.158016502857 9.873637199402
723 4880.236299000000 -0.003195793368 -0.000000000000 -0.006391586736 0.009576757438 -0.205900281668 9.792234420776
724 4880.238299000000 -0.004261057824 -0.004261057824 -0.004261057824 -0.057460546494 -0.148439735174 9.753927230835
725 4880.240300000000 -0.006391586736 -0.007456851192 -0.003195793368 -0.062248922884 -0.177170008421 9.749138832092
726 4880.242298000000 -0.009587380104 -0.007456851192 -0.005326322280 -0.062248922884 -0.134074598551 9.624641418457
727 4880.244303000000 -0.008522115648 -0.004261057824 -0.007456851192 -0.071825683117 -0.158016502857 9.677313804626
728 4880.246302000000 -0.006391586736 -0.003195793368 -0.005326322280 -0.081402435899 -0.153228119016 9.643795013428
729 4880.248302000000 -0.006391586736 0.002130528912 -0.002130528912 -0.081402435899 -0.134074598551 9.658160209656
730 4880.250301000000 -0.004261057824 0.002130528912 -0.004261057824 -0.052672166377 -0.138862982392 9.691679000854
731 4880.252309000000 -0.001065264456 -0.003195793368 -0.005326322280 -0.038307029754 -0.181958392262 9.672525405884
732 4880.254303000000 -0.004261057824 -0.001065264456 -0.005326322280 -0.043095409870 -0.148439735174 9.753927230835
733 4880.256302000000 -0.005326322280 0.001065264456 -0.006391586736 0.019153514877 -0.177170008421 9.773080825806
734 4880.258302000000 -0.007456851192 -0.003195793368 -0.003195793368 -0.028730273247 -0.158016502857 9.787446022034
735 4880.260301000000 -0.009587380104 -0.005326322280 -0.005326322280 -0.071825683117 -0.153228119016 9.744350433350
736 4880.262301000000 -0.010652644560 -0.005326322280 -0.002130528912 -0.100555956364 -0.162804871798 9.729985237122
737 4880.264302000000 -0.009587380104 -0.006391586736 -0.004261057824 -0.076614059508 -0.167593255639 9.677313804626
738 4880.266302000000 -0.005326322280 -0.004261057824 -0.006391586736 -0.100555956364 -0.167593255639 9.720408439636
739 4880.268300000000 -0.005326322280 -0.003195793368 -0.006391586736 -0.062248922884 -0.138862982392 9.662948608398
740 4880.270299000000 -0.002130528912 -0.001065264456 -0.003195793368 -0.038307029754 -0.186746776104 9.720408439636
741 4880.272298000000 -0.004261057824 0.003195793368 -0.002130528912 -0.038307029754 -0.158016502857 9.729985237122
742 4880.274297000000 -0.006391586736 0.003195793368 -0.008522115648 -0.014365136623 -0.196323528886 9.720408439636
743 4880.276297000000 -0.005326322280 0.001065264456 -0.005326322280 -0.014365136623 -0.172381639481 9.792234420776
744 4880.278297000000 -0.004261057824 -0.001065264456 -0.003195793368 -0.043095409870 -0.181958392262 9.763504028320
745 4880.280297000000 -0.007456851192 -0.003195793368 -0.005326322280 -0.071825683117 -0.124497845769 9.777869224548
746 4880.282299000000 -0.008522115648 -0.005326322280 -0.003195793368 -0.067037299275 -0.148439735174 9.734773635864
747 4880.284299000000 -0.011717909016 -0.006391586736 -0.004261057824 -0.038307029754 -0.162804871798 9.667737007141
748 4880.286300000000 -0.009587380104 -0.006391586736 -0.003195793368 -0.067037299275 -0.186746776104 9.643795013428
749 4880.288300000000 -0.006391586736 -0.006391586736 -0.005326322280 -0.076614059508 -0.143651366234 9.710831642151
750 4880.290301000000 -0.003195793368 -0.002130528912 -0.005326322280 -0.067037299275 -0.148439735174 9.643795013428
751 4880.292299000000 0.002130528912 -0.000000000000 -0.005326322280 -0.067037299275 -0.172381639481 9.701254844666
752 4880.294300000000 -0.001065264456 -0.000000000000 -0.007456851192 -0.043095409870 -0.158016502857 9.773080825806
753 4880.296301000000 0.000000000000 0.002130528912 -0.008522115648 -0.062248922884 -0.148439735174 9.792234420776
754 4880.298299000000 -0.003195793368 -0.002130528912 -0.009587380104 -0.019153514877 -0.124497845769 9.729985237122
755 4880.300299000000 -0.005326322280 -0.006391586736 -0.004261057824 -0.028730273247 -0.153228119016 9.820964813232
756 4880.302298000000 -0.008522115648 -0.005326322280 -0.005326322280 -0.033518649638 -0.143651366234 9.749138832092
757 4880.304305000000 -0.008522115648 -0.005326322280 -0.003195793368 -0.071825683117 -0.138862982392 9.725196838379
758 4880.306300000000 -0.006391586736 -0.004261057824 -0.002130528912 -0.095767572522 -0.119709469378 9.701254844666
759 4880.308297000000 -0.005326322280 -0.004261057824 -0.004261057824 -0.081402435899 -0.162804871798 9.658160209656
760 4880.310296000000 -0.005326322280 -0.004261057824 -0.005326322280 -0.081402435899 -0.167593255639 9.639006614685
761 4880.312296000000 -0.003195793368 -0.001065264456 -0.003195793368 -0.057460546494 -0.172381639481 9.696466445923
762 4880.314297000000 -0.004261057824 0.004261057824 -0.004261057824 -0.052672166377 -0.167593255639 9.615064620972
763 4880.316306000000 -0.003195793368 0.002130528912 -0.008522115648 -0.043095409870 -0.201111912727 9.753927230835
764 4880.318300000000 -0.002130528912 -0.002130528912 -0.004261057824 -0.057460546494 -0.167593255639 9.768292427063
765 4880.320299000000 -0.005326322280 -0.003195793368 -0.003195793368 -0.014365136623 -0.167593255639 9.753927230835
766 4880.322300000000 -0.005326322280 -0.003195793368 -0.006391586736 -0.043095409870 -0.124497845769 9.792234420776
767 4880.324299000000 -0.007456851192 -0.008522115648 -0.005326322280 -0.076614059508 -0.158016502857 9.749138832092
768 4880.326299000000 -0.009587380104 -0.007456851192 -0.007456851192 -0.067037299275 -0.124497845769 9.658160209656
769 4880.328299000000 -0.004261057824 -0.003195793368 -0.006391586736 -0.095767572522 -0.138862982392 9.667737007141
770 4880.330299000000 -0.004261057824 -0.002130528912 -0.001065264456 -0.047883786261 -0.143651366234 9.667737007141
771 4880.332300000000 -0.006391586736 -0.000000000000 -0.000000000000 -0.071825683117 -0.191535145044 9.658160209656
772 4880.334299000000 -0.001065264456 -0.000000000000 -0.005326322280 -0.038307029754 -0.143651366234 9.744350433350
773 4880.336297000000 -0.002130528912 -0.000000000000 -0.003195793368 0.014365136623 -0.191535145044 9.691679000854
774 4880.338298000000 -0.002130528912 -0.001065264456 -0.004261057824 -0.023941893131 -0.153228119016 9.734773635864
775 4880.340297000000 -0.005326322280 0.002130528912 -0.007456851192 -0.028730273247 -0.167593255639 9.768292427063
776 4880.342297000000 -0.007456851192 -0.003195793368 -0.005326322280 -0.014365136623 -0.124497845769 9.792234420776
777 4880.344296000000 -0.008522115648 -0.008522115648 -0.006391586736 -0.023941893131 -0.148439735174 9.739562034607
778 4880.346297000000 -0.005326322280 -0.005326322280 -0.007456851192 -0.052672166377 -0.143651366234 9.725196838379
779 4880.348300000000 -0.006391586736 -0.005326322280 -0.002130528912 -0.100555956364 -0.143651366234 9.701254844666
780 4880.350300000000 -0.005326322280 -0.002130528912 -0.002130528912 -0.067037299275 -0.186746776104 9.682102203369
781 4880.352303000000 -0.003195793368 -0.002130528912 -0.004261057824 -0.076614059508 -0.148439735174 9.682102203369
782 4880.354298000000 -0.002130528912 -0.002130528912 -0.004261057824 -0.062248922884 -0.158016502857 9.696466445923
783 4880.356304000000 -0.004261057824 0.001065264456 -0.007456851192 -0.023941893131 -0.158016502857 9.667737007141
784 4880.358300000000 -0.001065264456 0.004261057824 -0.003195793368 -0.023941893131 -0.186746776104 9.749138832092
785 4880.360299000000 0.000000000000 0.001065264456 -0.005326322280 -0.043095409870 -0.162804871798 9.753927230835
786 4880.362299000000 -0.003195793368 -0.001065264456 -0.007456851192 -0.023941893131 -0.153228119016 9.820964813232
787 4880.364301000000 -0.007456851192 -0.002130528912 -0.007456851192 -0.067037299275 -0.148439735174 9.787446022034
788 4880.366300000000 -0.007456851192 -0.004261057824 -0.005326322280 -0.067037299275 -0.119709469378 9.696466445923
789 4880.368298000000 -0.007456851192 -0.006391586736 -0.005326322280 -0.038307029754 -0.119709469378 9.706043243408
790 4880.370298000000 -0.004261057824 -0.007456851192 -0.005326322280 -0.076614059508 -0.153228119016 9.658160209656
791 4880.372298000000 -0.005326322280 -0.002130528912 -0.001065264456 -0.100555956364 -0.153228119016 9.619853019714
792 4880.374297000000 -0.005326322280 0.001065264456 -0.003195793368 -0.043095409870 -0.134074598551 9.667737007141
793 4880.376298000000 -0.004261057824 -0.001065264456 -0.005326322280 -0.043095409870 -0.162804871798 9.720408439636
794 4880.378298000000 -0.004261057824 0.003195793368 -0.006391586736 -0.028730273247 -0.177170008421 9.677313804626
795 4880.380299000000 -0.004261057824 0.002130528912 -0.007456851192 -0.033518649638 -0.205900281668 9.773080825806
796 4880.382301000000 -0.008522115648 0.001065264456 -0.005326322280 -0.052672166377 -0.172381639481 9.797022819519
797 4880.384300000000 -0.008522115648 0.001065264456 -0.004261057824 -0.043095409870 -0.129286229610 9.739562034607
798 4880.386306000000 -0.005326322280 -0.006391586736 -0.003195793368 -0.067037299275 -0.177170008421 9.753927230835
799 4880.388300000000 -0.007456851192 -0.008522115648 -0.002130528912 -0.071825683117 -0.158016502857 9.696466445923
800 4880.390299000000 -0.009587380104 -0.007456851192 -0.003195793368 -0.067037299275 -0.162804871798 9.734773635864
801 4880.392300000000 -0.009587380104 -0.003195793368 -0.006391586736 -0.057460546494 -0.129286229610 9.662948608398
802 4880.394299000000 -0.007456851192 0.001065264456 -0.007456851192 -0.057460546494 -0.158016502857 9.691679000854
803 4880.396299000000 -0.005326322280 -0.002130528912 -0.004261057824 -0.047883786261 -0.143651366234 9.720408439636
804 4880.398313000000 -0.001065264456 0.001065264456 -0.003195793368 -0.076614059508 -0.148439735174 9.715620040894
805 4880.400307000000 -0.002130528912 -0.000000000000 -0.007456851192 0.000000000000 -0.153228119016 9.710831642151
806 4880.402301000000 -0.004261057824 -0.001065264456 -0.007456851192 -0.004788378719 -0.134074598551 9.753927230835
807 4880.404300000000 -0.005326322280 -0.002130528912 -0.006391586736 0.000000000000 -0.148439735174 9.768292427063
808 4880.406314000000 -0.006391586736 -0.003195793368 -0.004261057824 -0.038307029754 -0.114921092987 9.744350433350
809 4880.408303000000 -0.008522115648 -0.006391586736 -0.004261057824 -0.047883786261 -0.090979196131 9.729985237122
810 4880.410300000000 -0.007456851192 -0.007456851192 -0.005326322280 -0.057460546494 -0.100555956364 9.706043243408
811 4880.412298000000 -0.007456851192 -0.007456851192 -0.005326322280 -0.081402435899 -0.138862982392 9.653371810913
812 4880.414299000000 -0.004261057824 -0.003195793368 -0.004261057824 -0.076614059508 -0.148439735174 9.667737007141
813 4880.416305000000 -0.005326322280 -0.001065264456 -0.000000000000 -0.033518649638 -0.162804871798 9.744350433350
814 4880.418303000000 -0.002130528912 0.003195793368 -0.006391586736 -0.057460546494 -0.162804871798 9.696466445923
815 4880.420303000000 -0.003195793368 -0.000000000000 -0.002130528912 -0.038307029754 -0.162804871798 9.734773635864
816 4880.422305000000 -0.001065264456 0.001065264456 -0.006391586736 -0.014365136623 -0.167593255639 9.749138832092
817 4880.424301000000 -0.003195793368 -0.000000000000 -0.007456851192 0.000000000000 -0.138862982392 9.753927230835
818 4880.426301000000 -0.004261057824 -0.002130528912 -0.006391586736 -0.033518649638 -0.172381639481 9.739562034607
819 4880.428300000000 -0.006391586736 -0.004261057824 -0.002130528912 -0.033518649638 -0.100555956364 9.782657623291
820 4880.430301000000 -0.005326322280 -0.005326322280 -0.005326322280 -0.047883786261 -0.119709469378 9.667737007141
821 4880.432302000000 -0.006391586736 -0.003195793368 -0.005326322280 -0.062248922884 -0.167593255639 9.729985237122
822 4880.434301000000 -0.007456851192 -0.004261057824 -0.001065264456 -0.047883786261 -0.138862982392 9.696466445923
823 4880.436301000000 -0.004261057824 -0.004261057824 -0.004261057824 -0.071825683117 -0.119709469378 9.639006614685
824 4880.438299000000 -0.003195793368 -0.002130528912 -0.003195793368 -0.047883786261 -0.153228119016 9.667737007141
825 4880.440297000000 -0.003195793368 0.003195793368 -0.005326322280 -0.062248922884 -0.158016502857 9.672525405884
826 4880.442297000000 -0.004261057824 0.001065264456 -0.002130528912 0.014365136623 -0.162804871798 9.763504028320
827 4880.444297000000 -0.003195793368 -0.000000000000 -0.002130528912 -0.023941893131 -0.114921092987 9.749138832092
828 4880.446298000000 -0.004261057824 -0.003195793368 -0.006391586736 -0.062248922884 -0.148439735174 9.787446022034
829 4880.448298000000 -0.006391586736 -0.005326322280 -0.008522115648 -0.114921092987 -0.143651366234 9.753927230835
830 4880.450299000000 -0.006391586736 -0.007456851192 -0.002130528912 -0.052672166377 -0.124497845769 9.744350433350
831 4880.452297000000 -0.006391586736 -0.005326322280 -0.004261057824 -0.071825683117 -0.143651366234 9.734773635864
832 4880.454297000000 -0.009587380104 -0.004261057824 -0.006391586736 -0.090979196131 -0.162804871798 9.643795013428
833 4880.456301000000 -0.003195793368 -0.004261057824 -0.003195793368 -0.081402435899 -0.191535145044 9.682102203369
834 4880.458310000000 -0.003195793368 -0.004261057824 -0.005326322280 -0.110132709146 -0.201111912727 9.729985237122
835 4880.460311000000 -0.003195793368 -0.000000000000 -0.002130528912 -0.043095409870 -0.205900281668 9.686890602112
836 4880.462301000000 -0.002130528912 0.003195793368 -0.003195793368 -0.062248922884 -0.148439735174 9.758715629578
837 4880.464302000000 -0.005326322280 -0.000000000000 -0.003195793368 0.004788378719 -0.196323528886 9.787446022034
838 4880.466299000000 -0.004261057824 -0.002130528912 -0.004261057824 -0.023941893131 -0.148439735174 9.811388015747
839 4880.468298000000 -0.008522115648 -0.007456851192 -0.007456851192 -0.028730273247 -0.158016502857 9.816176414490
840 4880.470297000000 -0.009587380104 -0.004261057824 -0.006391586736 -0.043095409870 -0.167593255639 9.849695205688
841 4880.472296000000 -0.009587380104 -0.006391586736 -0.004261057824 -0.047883786261 -0.100555956364 9.744350433350
842 4880.474295000000 -0.004261057824 -0.007456851192 -0.002130528912 -0.086190819740 -0.153228119016 9.672525405884
843 4880.476296000000 -0.007456851192 -0.004261057824 -0.003195793368 -0.076614059508 -0.148439735174 9.629429817200
844 4880.478296000000 -0.006391586736 -0.002130528912 -0.006391586736 -0.067037299275 -0.162804871798 9.672525405884
845 4880.480300000000 -0.001065264456 0.001065264456 -0.006391586736 -0.043095409870 -0.119709469378 9.653371810913
846 4880.482299000000 -0.002130528912 0.002130528912 -0.002130528912 -0.047883786261 -0.172381639481 9.715620040894
847 4880.484301000000 -0.003195793368 0.001065264456 -0.007456851192 -0.033518649638 -0.186746776104 9.749138832092
848 4880.486299000000 -0.001065264456 0.001065264456 -0.006391586736 -0.047883786261 -0.167593255639 9.753927230835
849 4880.488300000000 -0.004261057824 -0.003195793368 -0.004261057824 -0.023941893131 -0.148439735174 9.816176414490
850 4880.490300000000 -0.008522115648 -0.007456851192 -0.007456851192 -0.014365136623 -0.153228119016 9.706043243408
851 4880.492303000000 -0.008522115648 -0.008522115648 -0.006391586736 -0.052672166377 -0.134074598551 9.768292427063
852 4880.494300000000 -0.009587380104 -0.004261057824 -0.004261057824 -0.086190819740 -0.167593255639 9.691679000854
853 4880.496301000000 -0.008522115648 -0.007456851192 -0.003195793368 -0.057460546494 -0.158016502857 9.706043243408
854 4880.498300000000 -0.003195793368 -0.004261057824 -0.005326322280 -0.057460546494 -0.172381639481 9.648583412170
855 4880.500300000000 -0.002130528912 -0.004261057824 -0.006391586736 -0.033518649638 -0.201111912727 9.629429817200
856 4880.502299000000 0.000000000000 -0.001065264456 -0.008522115648 -0.023941893131 -0.196323528886 9.677313804626
857 4880.504299000000 0.000000000000 0.002130528912 -0.007456851192 -0.043095409870 -0.148439735174 9.725196838379
858 4880.506300000000 -0.004261057824 -0.001065264456 -0.007456851192 -0.014365136623 -0.172381639481 9.792234420776
859 4880.508307000000 -0.002130528912 0.001065264456 -0.005326322280 0.009576757438 -0.158016502857 9.758715629578
860 4880.510302000000 -0.009587380104 -0.001065264456 -0.005326322280 -0.067037299275 -0.158016502857 9.706043243408
861 4880.512298000000 -0.011717909016 -0.003195793368 -0.008522115648 -0.038307029754 -0.114921092987 9.734773635864
862 4880.514297000000 -0.006391586736 -0.006391586736 -0.004261057824 -0.019153514877 -0.110132709146 9.734773635864
863 4880.516296000000 -0.008522115648 -0.004261057824 -0.003195793368 -0.095767572522 -0.105344332755 9.653371810913
864 4880.518296000000 -0.007456851192 -0.002130528912 -0.005326322280 -0.047883786261 -0.167593255639 9.639006614685
865 4880.520301000000 -0.005326322280 0.002130528912 -0.004261057824 -0.057460546494 -0.172381639481 9.624641418457
866 4880.522300000000 0.000000000000 -0.002130528912 -0.005326322280 -0.081402435899 -0.186746776104 9.710831642151
867 4880.524300000000 -0.003195793368 0.001065264456 -0.006391586736 -0.033518649638 -0.201111912727 9.729985237122
868 4880.526300000000 -0.002130528912 0.001065264456 -0.007456851192 -0.023941893131 -0.177170008421 9.720408439636
869 4880.528303000000 -0.002130528912 0.001065264456 -0.007456851192 0.019153514877 -0.138862982392 9.792234420776
870 4880.530300000000 -0.004261057824 -0.003195793368 -0.005326322280 -0.023941893131 -0.148439735174 9.744350433350
871 4880.532299000000 -0.006391586736 -0.005326322280 -0.005326322280 -0.043095409870 -0.138862982392 9.777869224548
872 4880.534301000000 -0.008522115648 -0.006391586736 -0.006391586736 -0.033518649638 -0.138862982392 9.720408439636
873 4880.536300000000 -0.006391586736 -0.005326322280 -0.003195793368 -0.086190819740 -0.181958392262 9.725196838379
874 4880.538299000000 -0.006391586736 -0.005326322280 -0.003195793368 -0.086190819740 -0.181958392262 9.725196838379
875 4880.540297000000 -0.006391586736 -0.005326322280 -0.006391586736 -0.043095409870 -0.162804871798 9.600699424744
876 4880.542297000000 -0.004261057824 -0.002130528912 -0.004261057824 -0.062248922884 -0.162804871798 9.643795013428
877 4880.544296000000 -0.002130528912 0.001065264456 -0.006391586736 -0.028730273247 -0.162804871798 9.672525405884
878 4880.546297000000 -0.003195793368 0.002130528912 -0.004261057824 -0.028730273247 -0.172381639481 9.739562034607
879 4880.548307000000 -0.002130528912 -0.000000000000 -0.002130528912 -0.043095409870 -0.177170008421 9.806599617004
880 4880.550300000000 -0.003195793368 -0.004261057824 -0.002130528912 -0.028730273247 -0.138862982392 9.797022819519
881 4880.552299000000 -0.004261057824 -0.004261057824 -0.003195793368 -0.033518649638 -0.143651366234 9.777869224548
882 4880.554299000000 -0.010652644560 -0.006391586736 -0.004261057824 -0.009576757438 -0.119709469378 9.715620040894
883 4880.556300000000 -0.006391586736 -0.006391586736 -0.005326322280 -0.067037299275 -0.138862982392 9.725196838379
884 4880.558300000000 -0.006391586736 -0.005326322280 -0.002130528912 -0.062248922884 -0.143651366234 9.653371810913
885 4880.560305000000 -0.007456851192 -0.004261057824 -0.002130528912 -0.038307029754 -0.138862982392 9.696466445923
886 4880.562307000000 -0.004261057824 -0.004261057824 -0.002130528912 -0.090979196131 -0.129286229610 9.672525405884
887 4880.564301000000 -0.001065264456 -0.000000000000 -0.004261057824 -0.052672166377 -0.148439735174 9.672525405884
888 4880.566300000000 -0.002130528912 0.001065264456 -0.006391586736 -0.023941893131 -0.162804871798 9.749138832092
889 4880.568299000000 -0.003195793368 0.002130528912 -0.006391586736 -0.023941893131 -0.172381639481 9.720408439636
890 4880.570293000000 -0.002130528912 -0.000000000000 -0.008522115648 -0.038307029754 -0.119709469378 9.816176414490
891 4880.572311000000 -0.005326322280 -0.004261057824 -0.007456851192 0.019153514877 -0.138862982392 9.753927230835
892 4880.574303000000 -0.007456851192 -0.003195793368 -0.006391586736 -0.067037299275 -0.186746776104 9.768292427063
893 4880.576300000000 -0.007456851192 -0.004261057824 -0.003195793368 -0.038307029754 -0.138862982392 9.686890602112
894 4880.578300000000 -0.009587380104 -0.006391586736 -0.003195793368 -0.057460546494 -0.148439735174 9.701254844666
895 4880.580305000000 -0.005326322280 -0.003195793368 -0.004261057824 -0.057460546494 -0.153228119016 9.653371810913
896 4880.582304000000 -0.005326322280 -0.002130528912 -0.004261057824 -0.052672166377 -0.172381639481 9.696466445923
897 4880.584305000000 -0.004261057824 -0.003195793368 -0.005326322280 -0.057460546494 -0.196323528886 9.734773635864
898 4880.586303000000 0.002130528912 0.001065264456 -0.005326322280 -0.043095409870 -0.162804871798 9.763504028320
899 4880.588303000000 -0.001065264456 0.002130528912 -0.006391586736 -0.019153514877 -0.134074598551 9.701254844666
900 4880.590303000000 -0.004261057824 0.001065264456 -0.006391586736 -0.033518649638 -0.138862982392 9.753927230835
901 4880.592305000000 -0.005326322280 -0.000000000000 -0.003195793368 -0.019153514877 -0.153228119016 9.806599617004
902 4880.594303000000 -0.005326322280 -0.004261057824 -0.007456851192 -0.067037299275 -0.134074598551 9.758715629578
903 4880.596303000000 -0.007456851192 -0.003195793368 -0.007456851192 -0.023941893131 -0.158016502857 9.739562034607
904 4880.598304000000 -0.007456851192 -0.003195793368 -0.004261057824 -0.057460546494 -0.158016502857 9.648583412170
905 4880.600301000000 -0.005326322280 -0.003195793368 -0.003195793368 -0.038307029754 -0.148439735174 9.677313804626
906 4880.602300000000 -0.006391586736 -0.003195793368 -0.003195793368 -0.067037299275 -0.158016502857 9.639006614685
907 4880.604299000000 -0.002130528912 -0.002130528912 -0.002130528912 -0.062248922884 -0.153228119016 9.701254844666
908 4880.606297000000 -0.002130528912 -0.000000000000 -0.005326322280 -0.057460546494 -0.148439735174 9.691679000854
909 4880.608298000000 -0.003195793368 -0.000000000000 -0.005326322280 0.019153514877 -0.186746776104 9.744350433350
910 4880.610297000000 -0.005326322280 -0.000000000000 -0.002130528912 -0.057460546494 -0.177170008421 9.825753211975
911 4880.612303000000 -0.005326322280 -0.003195793368 -0.005326322280 -0.047883786261 -0.162804871798 9.768292427063
912 4880.614304000000 -0.006391586736 -0.005326322280 -0.005326322280 -0.023941893131 -0.148439735174 9.729985237122
913 4880.616300000000 -0.006391586736 -0.002130528912 -0.005326322280 -0.062248922884 -0.134074598551 9.725196838379
914 4880.618299000000 -0.006391586736 -0.007456851192 -0.005326322280 -0.043095409870 -0.138862982392 9.753927230835
915 4880.620298000000 -0.008522115648 -0.008522115648 -0.004261057824 -0.100555956364 -0.134074598551 9.682102203369
916 4880.622299000000 -0.007456851192 -0.006391586736 -0.004261057824 -0.047883786261 -0.158016502857 9.672525405884
917 4880.624298000000 -0.006391586736 -0.003195793368 -0.003195793368 -0.071825683117 -0.153228119016 9.715620040894
918 4880.626303000000 -0.005326322280 0.001065264456 -0.007456851192 -0.081402435899 -0.129286229610 9.691679000854
919 4880.628300000000 -0.003195793368 -0.000000000000 -0.004261057824 -0.043095409870 -0.138862982392 9.682102203369
920 4880.630303000000 -0.003195793368 0.004261057824 -0.004261057824 -0.023941893131 -0.143651366234 9.744350433350
921 4880.632299000000 -0.002130528912 0.001065264456 -0.008522115648 -0.028730273247 -0.167593255639 9.835330009460
922 4880.634304000000 -0.005326322280 -0.000000000000 -0.006391586736 -0.028730273247 -0.172381639481 9.706043243408
923 4880.636299000000 -0.006391586736 -0.005326322280 -0.005326322280 -0.076614059508 -0.181958392262 9.701254844666
924 4880.638299000000 -0.005326322280 -0.006391586736 -0.004261057824 -0.062248922884 -0.114921092987 9.792234420776
925 4880.640297000000 -0.007456851192 -0.004261057824 -0.006391586736 -0.052672166377 -0.148439735174 9.715620040894
926 4880.642296000000 -0.006391586736 -0.005326322280 -0.006391586736 -0.033518649638 -0.124497845769 9.715620040894
927 4880.644298000000 -0.006391586736 -0.004261057824 -0.005326322280 -0.062248922884 -0.162804871798 9.710831642151
928 4880.646296000000 -0.005326322280 -0.002130528912 -0.005326322280 -0.076614059508 -0.191535145044 9.600699424744
929 4880.648299000000 -0.004261057824 -0.002130528912 -0.007456851192 -0.062248922884 -0.196323528886 9.706043243408
930 4880.650301000000 -0.002130528912 -0.000000000000 -0.008522115648 -0.028730273247 -0.181958392262 9.720408439636
931 4880.652299000000 -0.002130528912 -0.000000000000 -0.008522115648 -0.028730273247 -0.181958392262 9.720408439636
932 4880.654299000000 0.001065264456 -0.003195793368 -0.003195793368 -0.038307029754 -0.167593255639 9.753927230835
933 4880.656302000000 -0.002130528912 -0.006391586736 -0.006391586736 -0.067037299275 -0.177170008421 9.787446022034
934 4880.658300000000 -0.008522115648 -0.004261057824 -0.006391586736 -0.038307029754 -0.148439735174 9.792234420776
935 4880.660301000000 -0.005326322280 -0.003195793368 -0.003195793368 -0.067037299275 -0.153228119016 9.686890602112
936 4880.662299000000 -0.005326322280 -0.004261057824 -0.001065264456 -0.057460546494 -0.143651366234 9.639006614685
937 4880.664306000000 -0.006391586736 -0.005326322280 -0.004261057824 -0.086190819740 -0.153228119016 9.662948608398
938 4880.666301000000 -0.005326322280 -0.000000000000 -0.003195793368 -0.047883786261 -0.138862982392 9.658160209656
939 4880.668305000000 -0.001065264456 0.001065264456 -0.004261057824 -0.033518649638 -0.191535145044 9.667737007141
940 4880.670298000000 -0.002130528912 -0.001065264456 -0.002130528912 -0.057460546494 -0.172381639481 9.682102203369
941 4880.672297000000 -0.003195793368 -0.000000000000 -0.003195793368 -0.014365136623 -0.191535145044 9.720408439636
942 4880.674297000000 -0.003195793368 0.002130528912 -0.007456851192 -0.028730273247 -0.201111912727 9.782657623291
943 4880.676297000000 -0.007456851192 -0.000000000000 -0.003195793368 -0.038307029754 -0.138862982392 9.758715629578
944 4880.678297000000 -0.006391586736 -0.005326322280 -0.005326322280 -0.086190819740 -0.148439735174 9.758715629578
945 4880.680298000000 -0.007456851192 -0.005326322280 -0.005326322280 -0.038307029754 -0.162804871798 9.677313804626
946 4880.682300000000 -0.009587380104 -0.004261057824 -0.001065264456 -0.047883786261 -0.138862982392 9.768292427063
947 4880.684300000000 -0.005326322280 -0.006391586736 -0.003195793368 -0.052672166377 -0.148439735174 9.615064620972
948 4880.686299000000 -0.007456851192 -0.006391586736 -0.006391586736 -0.047883786261 -0.181958392262 9.639006614685
949 4880.688301000000 -0.001065264456 -0.000000000000 -0.004261057824 -0.043095409870 -0.153228119016 9.653371810913
950 4880.690301000000 -0.001065264456 0.003195793368 -0.002130528912 -0.033518649638 -0.138862982392 9.682102203369
951 4880.692299000000 -0.006391586736 -0.000000000000 -0.006391586736 -0.014365136623 -0.172381639481 9.763504028320
952 4880.694300000000 -0.004261057824 0.001065264456 -0.008522115648 -0.038307029754 -0.162804871798 9.787446022034
953 4880.696299000000 -0.004261057824 -0.000000000000 -0.004261057824 -0.033518649638 -0.153228119016 9.744350433350
954 4880.698300000000 -0.006391586736 -0.003195793368 -0.000000000000 -0.023941893131 -0.158016502857 9.753927230835
955 4880.700301000000 -0.008522115648 -0.006391586736 -0.003195793368 -0.028730273247 -0.100555956364 9.753927230835
956 4880.702299000000 -0.005326322280 -0.007456851192 -0.003195793368 -0.043095409870 -0.153228119016 9.691679000854
957 4880.704302000000 -0.011717909016 -0.005326322280 -0.004261057824 -0.047883786261 -0.129286229610 9.624641418457
958 4880.706297000000 -0.008522115648 -0.002130528912 -0.002130528912 -0.052672166377 -0.153228119016 9.715620040894
959 4880.708296000000 0.000000000000 -0.000000000000 -0.004261057824 -0.033518649638 -0.162804871798 9.696466445923
960 4880.710296000000 -0.002130528912 -0.000000000000 -0.004261057824 -0.023941893131 -0.191535145044 9.768292427063
961 4880.712296000000 -0.004261057824 -0.000000000000 -0.004261057824 -0.028730273247 -0.162804871798 9.744350433350
962 4880.714297000000 -0.003195793368 -0.000000000000 -0.002130528912 -0.038307029754 -0.167593255639 9.777869224548
963 4880.716306000000 -0.006391586736 -0.002130528912 -0.006391586736 -0.067037299275 -0.162804871798 9.830541610718
964 4880.718302000000 -0.005326322280 -0.002130528912 -0.005326322280 -0.043095409870 -0.177170008421 9.820964813232
965 4880.720301000000 -0.006391586736 -0.004261057824 -0.004261057824 -0.047883786261 -0.181958392262 9.715620040894
966 4880.722301000000 -0.005326322280 -0.005326322280 -0.003195793368 -0.028730273247 -0.148439735174 9.706043243408
967 4880.724300000000 -0.005326322280 -0.003195793368 -0.002130528912 -0.047883786261 -0.167593255639 9.725196838379
968 4880.726299000000 -0.008522115648 -0.001065264456 -0.001065264456 -0.057460546494 -0.191535145044 9.643795013428
969 4880.728300000000 -0.005326322280 -0.003195793368 -0.002130528912 -0.057460546494 -0.138862982392 9.672525405884
970 4880.730300000000 -0.004261057824 -0.001065264456 -0.004261057824 -0.071825683117 -0.158016502857 9.648583412170
971 4880.732299000000 -0.002130528912 -0.001065264456 -0.007456851192 -0.071825683117 -0.225053802133 9.744350433350
972 4880.734299000000 -0.002130528912 -0.000000000000 -0.008522115648 -0.014365136623 -0.177170008421 9.710831642151
973 4880.736300000000 -0.005326322280 -0.002130528912 -0.007456851192 -0.023941893131 -0.129286229610 9.801811218262
974 4880.738303000000 -0.006391586736 -0.000000000000 -0.004261057824 -0.043095409870 -0.124497845769 9.801811218262
975 4880.740298000000 -0.006391586736 -0.002130528912 -0.004261057824 -0.038307029754 -0.129286229610 9.734773635864
976 4880.742293000000 -0.006391586736 -0.008522115648 -0.003195793368 -0.052672166377 -0.138862982392 9.753927230835
977 4880.744302000000 -0.006391586736 -0.006391586736 -0.003195793368 -0.067037299275 -0.162804871798 9.725196838379
978 4880.746300000000 -0.006391586736 -0.006391586736 -0.005326322280 -0.105344332755 -0.148439735174 9.701254844666
979 4880.748304000000 -0.003195793368 -0.002130528912 -0.005326322280 -0.057460546494 -0.177170008421 9.634218215942
980 4880.750302000000 -0.005326322280 -0.002130528912 -0.005326322280 -0.100555956364 -0.162804871798 9.672525405884
981 4880.752302000000 -0.002130528912 -0.000000000000 -0.006391586736 -0.038307029754 -0.215477049351 9.701254844666
982 4880.754304000000 -0.001065264456 0.002130528912 -0.004261057824 -0.014365136623 -0.177170008421 9.715620040894
983 4880.756303000000 -0.001065264456 0.001065264456 -0.006391586736 -0.019153514877 -0.129286229610 9.749138832092
984 4880.758302000000 -0.003195793368 -0.000000000000 -0.002130528912 0.009576757438 -0.162804871798 9.816176414490
985 4880.760303000000 -0.006391586736 -0.005326322280 -0.002130528912 -0.028730273247 -0.172381639481 9.840118408203
986 4880.762303000000 -0.005326322280 -0.006391586736 -0.002130528912 -0.004788378719 -0.143651366234 9.758715629578
987 4880.764304000000 -0.011717909016 -0.005326322280 -0.003195793368 -0.047883786261 -0.167593255639 9.682102203369
988 4880.766303000000 -0.011717909016 -0.007456851192 -0.006391586736 -0.047883786261 -0.129286229610 9.686890602112
989 4880.768300000000 -0.007456851192 -0.003195793368 -0.002130528912 -0.081402435899 -0.153228119016 9.667737007141
990 4880.770306000000 -0.005326322280 -0.003195793368 -0.002130528912 -0.090979196131 -0.138862982392 9.686890602112
991 4880.772300000000 -0.006391586736 -0.000000000000 -0.006391586736 -0.067037299275 -0.181958392262 9.672525405884
992 4880.774301000000 -0.004261057824 -0.001065264456 -0.007456851192 -0.028730273247 -0.153228119016 9.691679000854
993 4880.776298000000 -0.002130528912 0.001065264456 -0.004261057824 -0.052672166377 -0.201111912727 9.758715629578
994 4880.778297000000 -0.004261057824 -0.001065264456 -0.004261057824 -0.038307029754 -0.167593255639 9.820964813232
995 4880.780297000000 -0.006391586736 -0.001065264456 -0.005326322280 -0.043095409870 -0.153228119016 9.773080825806
996 4880.782299000000 -0.004261057824 -0.000000000000 -0.006391586736 -0.033518649638 -0.129286229610 9.787446022034
997 4880.784305000000 -0.005326322280 -0.003195793368 -0.005326322280 -0.071825683117 -0.153228119016 9.706043243408
998 4880.786299000000 -0.009587380104 -0.005326322280 -0.004261057824 -0.081402435899 -0.138862982392 9.739562034607
999 4880.788299000000 -0.006391586736 -0.005326322280 -0.003195793368 -0.071825683117 -0.138862982392 9.658160209656
1000 4880.790299000000 -0.006391586736 -0.005326322280 -0.003195793368 -0.090979196131 -0.181958392262 9.653371810913
1001 4880.792298000000 -0.005326322280 -0.001065264456 -0.006391586736 -0.052672166377 -0.158016502857 9.677313804626
1002 4880.794298000000 -0.002130528912 -0.001065264456 -0.004261057824 -0.038307029754 -0.177170008421 9.677313804626
1003 4880.796302000000 -0.002130528912 -0.001065264456 -0.004261057824 -0.038307029754 -0.177170008421 9.677313804626
1004 4880.798302000000 -0.002130528912 -0.002130528912 -0.008522115648 -0.009576757438 -0.177170008421 9.753927230835
1005 4880.800307000000 -0.003195793368 -0.003195793368 -0.004261057824 -0.047883786261 -0.167593255639 9.806599617004
1006 4880.802300000000 -0.004261057824 -0.002130528912 -0.004261057824 -0.047883786261 -0.138862982392 9.749138832092
1007 4880.804300000000 -0.006391586736 -0.005326322280 -0.002130528912 -0.043095409870 -0.167593255639 9.729985237122
1008 4880.806300000000 -0.006391586736 -0.006391586736 -0.002130528912 -0.081402435899 -0.124497845769 9.691679000854
1009 4880.808299000000 -0.006391586736 -0.005326322280 -0.003195793368 -0.090979196131 -0.105344332755 9.696466445923
1010 4880.810300000000 -0.003195793368 -0.003195793368 -0.005326322280 -0.071825683117 -0.162804871798 9.643795013428
1011 4880.812296000000 -0.002130528912 -0.001065264456 -0.000000000000 -0.047883786261 -0.186746776104 9.648583412170
1012 4880.814298000000 -0.005326322280 -0.000000000000 -0.003195793368 -0.062248922884 -0.191535145044 9.672525405884
1013 4880.816297000000 -0.005326322280 0.003195793368 -0.004261057824 -0.057460546494 -0.205900281668 9.725196838379
1014 4880.818296000000 -0.003195793368 0.001065264456 -0.006391586736 -0.047883786261 -0.158016502857 9.753927230835
1015 4880.820301000000 -0.004261057824 -0.001065264456 -0.007456851192 -0.014365136623 -0.191535145044 9.773080825806
1016 4880.822304000000 -0.002130528912 -0.000000000000 -0.006391586736 0.009576757438 -0.181958392262 9.811388015747
1017 4880.824301000000 -0.006391586736 -0.002130528912 -0.003195793368 -0.090979196131 -0.153228119016 9.749138832092
1018 4880.826300000000 -0.009587380104 -0.007456851192 -0.006391586736 -0.038307029754 -0.138862982392 9.763504028320
1019 4880.828300000000 -0.008522115648 -0.006391586736 -0.003195793368 -0.071825683117 -0.153228119016 9.672525405884
1020 4880.830300000000 -0.006391586736 -0.007456851192 -0.002130528912 -0.090979196131 -0.148439735174 9.619853019714
1021 4880.832298000000 -0.006391586736 -0.003195793368 -0.003195793368 -0.038307029754 -0.201111912727 9.658160209656
1022 4880.834299000000 -0.005326322280 -0.000000000000 -0.006391586736 -0.071825683117 -0.162804871798 9.701254844666
1023 4880.836299000000 -0.001065264456 0.001065264456 -0.005326322280 -0.014365136623 -0.177170008421 9.701254844666
1024 4880.838300000000 -0.003195793368 -0.000000000000 -0.005326322280 -0.023941893131 -0.177170008421 9.715620040894
1025 4880.840299000000 -0.004261057824 -0.001065264456 -0.005326322280 -0.014365136623 -0.158016502857 9.749138832092
1026 4880.842297000000 -0.007456851192 -0.001065264456 -0.007456851192 -0.019153514877 -0.196323528886 9.777869224548
1027 4880.844302000000 -0.003195793368 -0.004261057824 -0.006391586736 -0.014365136623 -0.181958392262 9.739562034607
